// General information: 
//  MT Manager version: 2025.0.0 
//  XDA version: 2025.0.0 build 241121001 rev 1732180523 built on 2024-11-21
// Device information: 
//  DeviceId: 00B4245A
//  ProductCode: MTW2-3A7G6
//  Firmware Version: 4.14.0
//  Hardware Version: 1.1.0
// Device settings: 
//  Filter Profile: human(46.1)
//  Option Flags: Orientation Smoother Disabled, Position/Velocity Smoother Disabled, Continuous Zero Rotation Update Disabled, AHS Disabled, ICC Disabled
// Coordinate system: ENU
PacketCounter	SampleTimeFine	Acc_X	Acc_Y	Acc_Z	Gyr_X	Gyr_Y	Gyr_Z	Quat_q0	Quat_q1	Quat_q2	Quat_q3	Roll	Pitch	Yaw
58903		9.573669	-0.092638	1.698454	0.006616	0.009165	0.002699	0.392997	-0.551389	-0.320718	-0.662317	-2.629948	-79.256247	-116.455018
58904		9.564574	-0.087035	1.808212	0.005195	0.013063	-0.006233	0.393002	-0.551310	-0.320783	-0.662348	-2.578963	-79.251388	-116.499226
58905		9.594392	-0.125517	1.857608	-0.009429	0.010732	-0.009853	0.392952	-0.551262	-0.320814	-0.662403	-2.526188	-79.247930	-116.553618
58906		9.690537	-0.100757	1.843704	-0.026797	0.017077	0.001021	0.392899	-0.551244	-0.320744	-0.662483	-2.514936	-79.240578	-116.576042
58907		9.640657	-0.065768	1.708375	-0.033658	0.027403	0.012245	0.392871	-0.551232	-0.320590	-0.662585	-2.541794	-79.227164	-116.565642
58908		9.607943	-0.014336	1.749462	-0.026581	0.023855	0.013798	0.392871	-0.551212	-0.320472	-0.662658	-2.567950	-79.215609	-116.549863
58909		9.576276	-0.073493	1.773572	-0.021390	0.018026	0.013044	0.392859	-0.551211	-0.320370	-0.662715	-2.592175	-79.207613	-116.536060
58910		9.557385	-0.163306	1.789091	-0.017101	0.021093	0.009340	0.392867	-0.551175	-0.320301	-0.662774	-2.599828	-79.197752	-116.533587
58911		9.544234	-0.133589	1.799428	-0.011248	0.019366	0.011170	0.392896	-0.551135	-0.320251	-0.662814	-2.610836	-79.188814	-116.524130
58912		9.578454	-0.176748	1.794566	-0.006156	0.006749	0.012117	0.392920	-0.551130	-0.320239	-0.662810	-2.622483	-79.187090	-116.511207
58913		9.623901	-0.188336	1.832490	0.005729	0.008014	0.008798	0.392964	-0.551094	-0.320269	-0.662799	-2.618499	-79.184780	-116.508003
58914		9.661142	-0.171141	1.824408	0.016288	0.004315	0.007461	0.393031	-0.551044	-0.320350	-0.662761	-2.603666	-79.184572	-116.508947
58915		9.641540	-0.149181	1.855122	0.013694	0.005609	0.004264	0.393081	-0.550993	-0.320425	-0.662739	-2.581971	-79.183732	-116.518843
58916		9.648151	-0.140747	1.833980	0.010728	0.007507	0.005986	0.393132	-0.550942	-0.320484	-0.662722	-2.565475	-79.181734	-116.524721
58917		9.613531	-0.099380	1.840865	0.013910	0.009139	0.009892	0.393205	-0.550887	-0.320538	-0.662698	-2.559132	-79.178735	-116.518906
58918		9.629037	-0.071280	1.830712	0.015650	0.009065	0.008448	0.393281	-0.550824	-0.320604	-0.662673	-2.546989	-79.175781	-116.517483
58919		9.665497	-0.102390	1.858131	0.018981	0.009808	0.008958	0.393367	-0.550756	-0.320676	-0.662644	-2.535430	-79.172412	-116.513975
58920		9.628615	-0.072298	1.832887	0.020380	0.015947	0.008852	0.393468	-0.550662	-0.320743	-0.662630	-2.520881	-79.165509	-116.512241
58921		9.599883	-0.070490	1.853801	0.020085	0.014484	0.008499	0.393562	-0.550575	-0.320810	-0.662614	-2.506019	-79.159481	-116.511577
58922		9.588471	-0.102308	1.812037	0.023710	0.016690	0.009363	0.393675	-0.550473	-0.320886	-0.662595	-2.491009	-79.152140	-116.508369
58923		9.588163	-0.102791	1.813640	0.018859	0.016310	0.008776	0.393781	-0.550376	-0.320954	-0.662579	-2.477111	-79.144920	-116.505361
58924		9.616337	-0.105699	1.795674	0.021155	0.013554	0.011624	0.393889	-0.550293	-0.321021	-0.662551	-2.470729	-79.139319	-116.494859
58925		9.609298	-0.115100	1.818853	0.022967	0.014657	0.012057	0.394009	-0.550202	-0.321092	-0.662521	-2.465088	-79.133050	-116.482200
58926		9.606848	-0.127234	1.787793	0.019930	0.015379	0.011901	0.394118	-0.550116	-0.321150	-0.662500	-2.459993	-79.126398	-116.471103
58927		9.584886	-0.117212	1.786835	0.016151	0.014068	0.014435	0.394223	-0.550046	-0.321191	-0.662475	-2.465239	-79.120432	-116.451707
58928		9.591391	-0.109678	1.766471	0.016445	0.015532	0.014789	0.394332	-0.549971	-0.321230	-0.662454	-2.470703	-79.113620	-116.431890
58929		9.564758	-0.097141	1.820034	0.010667	0.018441	0.014826	0.394431	-0.549897	-0.321245	-0.662450	-2.479012	-79.105117	-116.412308
58930		9.586178	-0.109212	1.823732	0.014971	0.008214	0.013025	0.394519	-0.549846	-0.321298	-0.662414	-2.480987	-79.102538	-116.396902
58931		9.545110	-0.102307	1.733172	0.016596	0.014638	0.011394	0.394623	-0.549763	-0.321355	-0.662393	-2.476336	-79.096224	-116.385938
58932		9.589935	-0.088337	1.891444	0.000969	0.017685	0.013643	0.394690	-0.549709	-0.321341	-0.662404	-2.486932	-79.088208	-116.369923
58933		9.520245	-0.079642	1.821094	-0.004444	0.023238	0.015906	0.394768	-0.549646	-0.321301	-0.662430	-2.506284	-79.076831	-116.346353
58934		9.531340	-0.075623	1.746993	0.000434	0.019191	0.021962	0.394863	-0.549601	-0.321259	-0.662431	-2.541591	-79.067740	-116.305480
58935		9.446002	-0.095861	1.687328	0.012660	0.014222	0.017330	0.394969	-0.549542	-0.321281	-0.662406	-2.557395	-79.061600	-116.277141
58936		9.527812	-0.138205	1.752162	0.027810	0.001742	0.014571	0.395087	-0.549489	-0.321386	-0.662329	-2.557372	-79.062681	-116.256276
58937		9.514142	-0.156367	1.795799	0.028512	-0.001831	0.015469	0.395210	-0.549444	-0.321503	-0.662236	-2.559211	-79.065691	-116.231778
58938		9.523100	-0.137280	1.806436	0.017818	-0.000475	0.013032	0.395292	-0.549416	-0.321583	-0.662172	-2.560655	-79.068081	-116.215250
58939		9.582218	-0.131669	1.800092	0.006084	-0.002614	0.012934	0.395327	-0.549427	-0.321616	-0.662125	-2.571914	-79.071856	-116.197755
58940		9.623966	-0.092427	1.856250	0.001306	-0.001811	0.014215	0.395365	-0.549438	-0.321640	-0.662082	-2.586519	-79.074979	-116.177458
58941		9.654578	-0.084962	1.869389	-0.003106	0.001638	0.017724	0.395402	-0.549457	-0.321626	-0.662051	-2.615559	-79.076127	-116.146353
58942		9.670261	-0.058115	1.858833	-0.002921	0.009603	0.017885	0.395458	-0.549445	-0.321603	-0.662038	-2.641930	-79.072617	-116.116539
58943		9.675831	-0.099369	1.873732	0.002562	0.018509	0.015596	0.395529	-0.549395	-0.321578	-0.662050	-2.659344	-79.064188	-116.094416
58944		9.684406	-0.081005	1.886421	0.002998	0.022335	0.019700	0.395628	-0.549332	-0.321545	-0.662059	-2.685882	-79.053339	-116.060977
58945		9.703431	-0.105060	1.858832	0.001751	0.028585	0.014508	0.395709	-0.549248	-0.321502	-0.662101	-2.698545	-79.039158	-116.043930
58946		9.673268	-0.152332	1.916640	-0.003137	0.035893	0.015597	0.395800	-0.549145	-0.321433	-0.662165	-2.714470	-79.020657	-116.024878
58947		9.679408	-0.145322	1.898382	-0.002843	0.037357	0.015952	0.395906	-0.549030	-0.321372	-0.662227	-2.729569	-79.001164	-116.004415
58948		9.648043	-0.156014	1.888882	-0.005810	0.039265	0.017666	0.396001	-0.548925	-0.321282	-0.662301	-2.752513	-78.980674	-115.979771
58949		9.588124	-0.164388	1.898837	-0.007034	0.041094	0.017940	0.396095	-0.548818	-0.321180	-0.662383	-2.777401	-78.959157	-115.954392
58950		9.603181	-0.137725	1.891715	-0.008781	0.041175	0.019383	0.396191	-0.548715	-0.321072	-0.662463	-2.806614	-78.937521	-115.925090
58951		9.580731	-0.128563	1.893236	-0.006516	0.042843	0.016777	0.396298	-0.548592	-0.320984	-0.662544	-2.826050	-78.914870	-115.902613
58952		9.556242	-0.130724	1.862177	-0.010371	0.040361	0.017428	0.396382	-0.548491	-0.320877	-0.662629	-2.850383	-78.893751	-115.879208
58953		9.609759	-0.123201	1.914162	-0.001566	0.036714	0.017573	0.396483	-0.548387	-0.320804	-0.662690	-2.871240	-78.874740	-115.854599
58954		9.587395	-0.113757	1.915255	-0.007179	0.038738	0.014199	0.396562	-0.548281	-0.320720	-0.662771	-2.884434	-78.854640	-115.840680
58955		9.624141	-0.097835	1.910627	-0.008336	0.041748	0.016348	0.396647	-0.548174	-0.320615	-0.662860	-2.905493	-78.832814	-115.820305
58956		9.668581	-0.110058	1.952183	-0.011276	0.040400	0.010908	0.396707	-0.548064	-0.320523	-0.662959	-2.911153	-78.811857	-115.816456
58957		9.624545	-0.089198	1.951015	-0.007949	0.041136	0.011433	0.396781	-0.547946	-0.320440	-0.663052	-2.916922	-78.790436	-115.810317
58958		9.616723	-0.098919	1.976877	-0.005383	0.044266	0.009185	0.396857	-0.547810	-0.320365	-0.663156	-2.913642	-78.767317	-115.812139
58959		9.604915	-0.131032	1.937806	-0.000143	0.044023	0.004875	0.396920	-0.547666	-0.320305	-0.663265	-2.897338	-78.744638	-115.826829
58960		9.569783	-0.089540	1.947707	-0.000312	0.044921	0.008277	0.397009	-0.547516	-0.320247	-0.663364	-2.888501	-78.721170	-115.831355
58961		9.550989	-0.130423	1.930467	-0.005096	0.045734	0.009546	0.397095	-0.547372	-0.320173	-0.663467	-2.885841	-78.697132	-115.831447
58962		9.566088	-0.102611	1.923756	-0.009841	0.043289	0.003659	0.397139	-0.547238	-0.320100	-0.663586	-2.869543	-78.674731	-115.849152
58963		9.536641	-0.100803	1.946910	-0.009084	0.040894	0.006435	0.397186	-0.547120	-0.320021	-0.663694	-2.862594	-78.653679	-115.857929
58964		9.512345	-0.101736	1.915606	-0.008917	0.039999	0.003037	0.397226	-0.546994	-0.319959	-0.663803	-2.844575	-78.633177	-115.876851
58965		9.517225	-0.141811	1.932772	-0.006474	0.036341	0.002499	0.397259	-0.546880	-0.319907	-0.663903	-2.825745	-78.614850	-115.896369
58966		9.554114	-0.124557	1.927894	-0.001692	0.035530	0.001238	0.397305	-0.546752	-0.319883	-0.663992	-2.799237	-78.596953	-115.919729
58967		9.508394	-0.114062	1.893325	-0.004265	0.032401	0.003483	0.397347	-0.546644	-0.319849	-0.664072	-2.782017	-78.580778	-115.935192
58968		9.505936	-0.125692	1.863776	-0.007423	0.030772	-0.000446	0.397365	-0.546541	-0.319820	-0.664161	-2.754810	-78.565647	-115.962619
58969		9.535892	-0.117041	1.880097	-0.011219	0.029472	0.002066	0.397375	-0.546456	-0.319771	-0.664248	-2.738082	-78.551224	-115.982190
58970		9.580384	-0.128118	1.920637	-0.006729	0.027196	0.000451	0.397392	-0.546365	-0.319749	-0.664324	-2.713617	-78.538111	-116.006416
58971		9.612207	-0.108013	1.969255	-0.005213	0.026831	0.000539	0.397408	-0.546275	-0.319726	-0.664399	-2.690035	-78.525260	-116.029797
58972		9.631401	-0.130638	1.942170	0.000514	0.031591	0.002232	0.397457	-0.546158	-0.319715	-0.664471	-2.665972	-78.509580	-116.049380
58973		9.647072	-0.139172	2.002200	0.002324	0.032690	0.002679	0.397524	-0.546028	-0.319714	-0.664539	-2.641434	-78.493134	-116.066667
58974		9.637476	-0.159466	1.994643	0.002676	0.035335	0.004916	0.397594	-0.545898	-0.319695	-0.664613	-2.623306	-78.475237	-116.078931
58975		9.584635	-0.157773	1.982048	-0.002807	0.039725	0.005280	0.397667	-0.545758	-0.319656	-0.664702	-2.608405	-78.454690	-116.089338
58976		9.563990	-0.136023	2.015889	-0.007007	0.043467	0.007252	0.397731	-0.545624	-0.319582	-0.664809	-2.601413	-78.432077	-116.095900
58977		9.564723	-0.088631	1.984651	-0.009349	0.040621	0.007970	0.397778	-0.545513	-0.319493	-0.664916	-2.600518	-78.411200	-116.099585
58978		9.524458	-0.118538	1.964445	-0.014246	0.047941	0.009049	0.397835	-0.545381	-0.319381	-0.665043	-2.602150	-78.385979	-116.101580
58979		9.539649	-0.091290	1.957716	-0.012108	0.038389	0.013611	0.397908	-0.545278	-0.319292	-0.665127	-2.615547	-78.365972	-116.088493
58980		9.524535	-0.109990	2.004811	-0.010063	0.039772	0.012541	0.397976	-0.545171	-0.319200	-0.665218	-2.625485	-78.345336	-116.079560
58981		9.546995	-0.074004	1.975984	-0.010178	0.037414	0.008784	0.398026	-0.545067	-0.319121	-0.665311	-2.626339	-78.326159	-116.080339
58982		9.542872	-0.134676	1.982129	-0.010473	0.035950	0.008426	0.398072	-0.544966	-0.319047	-0.665401	-2.625571	-78.307818	-116.082577
58983		9.570909	-0.138176	1.966628	-0.011992	0.036317	0.008338	0.398119	-0.544865	-0.318971	-0.665493	-2.624939	-78.289209	-116.084892
58984		9.550317	-0.116737	1.999803	-0.009253	0.034122	0.008161	0.398165	-0.544768	-0.318906	-0.665576	-2.622980	-78.271921	-116.087631
58985		9.608859	-0.111390	1.997762	-0.007975	0.033472	0.009774	0.398227	-0.544667	-0.318849	-0.665649	-2.624049	-78.254839	-116.085009
58986		9.541725	-0.127336	2.027903	-0.007500	0.034042	0.006735	0.398273	-0.544564	-0.318794	-0.665732	-2.617184	-78.237634	-116.091734
58987		9.526719	-0.108367	2.006567	-0.008087	0.031114	0.006016	0.398292	-0.544484	-0.318725	-0.665819	-2.611529	-78.222346	-116.101145
58988		9.517237	-0.129010	1.998490	-0.003830	0.028551	0.005932	0.398336	-0.544391	-0.318695	-0.665883	-2.601084	-78.208305	-116.109381
58989		9.507767	-0.149704	1.990359	-0.005294	0.030098	0.007722	0.398382	-0.544302	-0.318647	-0.665951	-2.597635	-78.193372	-116.112097
58990		9.494496	-0.119462	2.001223	-0.007398	0.027537	0.006910	0.398418	-0.544221	-0.318604	-0.666016	-2.592072	-78.179886	-116.117435
58991		9.477887	-0.148982	2.014191	-0.004737	0.019727	0.010306	0.398469	-0.544161	-0.318583	-0.666045	-2.594979	-78.170668	-116.111204
58992		9.512010	-0.155193	1.942588	0.001438	0.011752	0.010846	0.398517	-0.544121	-0.318590	-0.666045	-2.597068	-78.166114	-116.103550
58993		9.484866	-0.105028	1.927033	0.011604	0.004182	0.005489	0.398571	-0.544073	-0.318668	-0.666015	-2.579183	-78.165920	-116.109019
58994		9.454157	-0.151215	1.981311	0.005935	0.000606	0.005651	0.398597	-0.544053	-0.318726	-0.665988	-2.565880	-78.167880	-116.114460
58995		9.478901	-0.139972	2.049410	-0.010619	0.002569	-0.000646	0.398542	-0.544062	-0.318726	-0.666014	-2.547117	-78.169086	-116.138517
58996		9.575694	-0.117097	2.036950	-0.023208	0.010547	0.012580	0.398527	-0.544078	-0.318649	-0.666047	-2.568227	-78.165179	-116.125858
58997		9.522089	-0.090992	1.921249	-0.016688	0.014080	0.018954	0.398549	-0.544085	-0.318560	-0.666070	-2.604094	-78.159182	-116.096032
58998		9.520301	-0.104376	1.889454	-0.015946	0.002814	0.018134	0.398560	-0.544122	-0.318507	-0.666059	-2.637142	-78.159552	-116.066923
58999		9.496652	-0.180450	1.989216	-0.015018	-0.009346	0.013911	0.398544	-0.544189	-0.318495	-0.666020	-2.660510	-78.166947	-116.046715
59000		9.469545	-0.168430	2.040039	-0.017119	-0.003041	0.016691	0.398538	-0.544244	-0.318454	-0.665998	-2.691063	-78.170701	-116.020844
59001		9.423598	-0.133573	1.900903	-0.013983	-0.010284	0.017044	0.398527	-0.544322	-0.318432	-0.665952	-2.722991	-78.178623	-115.992479
59002		9.488431	-0.168574	1.908129	-0.002938	-0.013466	0.012766	0.398529	-0.544377	-0.318470	-0.665886	-2.736091	-78.188446	-115.976139
59003		9.506343	-0.166638	1.995807	0.007567	-0.027263	0.006051	0.398522	-0.544444	-0.318594	-0.665777	-2.726232	-78.206263	-115.976075
59004		9.546221	-0.138526	2.017887	0.004053	-0.027097	0.008909	0.398509	-0.544525	-0.318692	-0.665671	-2.726568	-78.223992	-115.968684
59005		9.584423	-0.121855	2.007549	0.001846	-0.023148	0.007929	0.398491	-0.544599	-0.318774	-0.665582	-2.726428	-78.239519	-115.963766
59006		9.577789	-0.093895	1.959526	0.003685	-0.017617	0.002930	0.398473	-0.544640	-0.318869	-0.665515	-2.709298	-78.251985	-115.974431
59007		9.586978	-0.073905	1.969112	0.012181	-0.010631	-0.000983	0.398482	-0.544630	-0.318994	-0.665457	-2.675554	-78.260462	-115.995973
59008		9.631940	-0.084490	2.006211	0.013936	-0.010713	-0.002412	0.398485	-0.544619	-0.319124	-0.665402	-2.636869	-78.269116	-116.022652
59009		9.601639	-0.092903	1.991788	0.013357	-0.004776	0.000461	0.398516	-0.544588	-0.319241	-0.665353	-2.605093	-78.274145	-116.040672
59010		9.653734	-0.095048	2.007792	0.013357	-0.004776	0.000461	0.398536	-0.544562	-0.319349	-0.665310	-2.573845	-78.279320	-116.060094
59011		9.571296	-0.101429	1.977564	0.006711	0.002634	0.002967	0.398555	-0.544533	-0.319409	-0.665294	-2.553910	-78.280223	-116.072590
59012		9.585537	-0.121354	2.002251	0.006711	0.002634	0.002967	0.398577	-0.544500	-0.319474	-0.665276	-2.532451	-78.281089	-116.085903
59013		9.542392	-0.099138	1.997006	0.005433	0.003287	0.001355	0.398581	-0.544473	-0.319525	-0.665271	-2.509211	-78.281747	-116.103874
59014		9.562186	-0.121628	1.967571	0.007244	0.004383	0.001807	0.398604	-0.544432	-0.319591	-0.665260	-2.484030	-78.281640	-116.120676
59015		9.540571	-0.110493	1.965157	0.006950	0.002919	0.001447	0.398601	-0.544410	-0.319639	-0.665256	-2.461388	-78.282633	-116.139054
59016		9.531588	-0.130376	1.954576	0.004155	0.003940	-0.000257	0.398608	-0.544373	-0.319701	-0.665252	-2.432333	-78.282827	-116.161620
59017		9.504617	-0.079700	1.938537	0.002904	0.001338	0.005466	0.398618	-0.544362	-0.319741	-0.665236	-2.421555	-78.284458	-116.167796
59018		9.540409	-0.110784	1.965932	0.003861	0.002476	-0.000617	0.398620	-0.544330	-0.319806	-0.665230	-2.391840	-78.285496	-116.191208
59019		9.531488	-0.130836	1.955032	0.005349	-0.002325	0.004928	0.398629	-0.544325	-0.319862	-0.665202	-2.378056	-78.289240	-116.199084
59020		9.578146	-0.093643	1.957791	0.006067	-0.001472	0.000366	0.398634	-0.544303	-0.319940	-0.665179	-2.350229	-78.292511	-116.219277
59021		9.585417	-0.084808	1.936037	0.005028	-0.000536	-0.002767	0.398634	-0.544272	-0.320025	-0.665164	-2.314241	-78.295228	-116.247317
59022		9.590126	-0.087799	2.101898	-0.015800	0.008440	0.000073	0.398594	-0.544260	-0.320011	-0.665204	-2.297007	-78.292827	-116.269486
59023		9.581184	-0.071400	2.024328	-0.021408	0.014915	0.005709	0.398568	-0.544250	-0.319947	-0.665260	-2.299365	-78.286607	-116.275402
59024		9.572209	-0.055585	1.946998	-0.020850	0.013409	0.011885	0.398561	-0.544250	-0.319874	-0.665298	-2.317099	-78.281088	-116.264816
59025		9.552428	-0.108014	1.893972	-0.002271	0.016067	0.009774	0.398608	-0.544200	-0.319866	-0.665315	-2.318609	-78.274039	-116.259274
59026		9.575168	-0.145448	1.998013	0.010038	0.003360	0.003514	0.398642	-0.544159	-0.319938	-0.665293	-2.296666	-78.274467	-116.271135
59027		9.531791	-0.160423	2.060400	0.005936	0.000600	0.005650	0.398662	-0.544144	-0.319991	-0.665268	-2.284649	-78.276485	-116.276354
59028		9.569424	-0.143583	2.052805	-0.007125	0.006843	0.005545	0.398662	-0.544129	-0.319994	-0.665279	-2.277756	-78.274871	-116.282887
59029		9.563896	-0.104619	2.040091	-0.014414	0.010149	0.005446	0.398624	-0.544133	-0.319943	-0.665323	-2.277686	-78.271651	-116.291172
59030		9.617623	-0.059558	2.022251	-0.016760	0.007306	0.006154	0.398600	-0.544137	-0.319911	-0.665349	-2.277948	-78.269758	-116.296036
59031		9.579756	-0.078012	2.030831	-0.015724	0.006368	0.009288	0.398588	-0.544148	-0.319875	-0.665365	-2.287292	-78.268327	-116.291242
59032		9.536521	-0.056742	2.026047	-0.009811	0.010223	0.007605	0.398593	-0.544130	-0.319856	-0.665385	-2.287252	-78.264732	-116.292348
59033		9.534657	-0.069119	1.994471	-0.009997	0.011117	0.011008	0.398614	-0.544113	-0.319830	-0.665400	-2.296426	-78.260480	-116.283485
59034		9.534482	-0.070161	1.995272	-0.010695	0.005833	0.006522	0.398605	-0.544110	-0.319820	-0.665412	-2.294391	-78.259422	-116.287145
59035		9.496566	-0.088307	2.004036	-0.015397	0.012269	0.004198	0.398578	-0.544099	-0.319778	-0.665458	-2.290034	-78.254835	-116.297779
59036		9.537770	-0.122754	1.977986	-0.014951	0.008403	0.006608	0.398562	-0.544096	-0.319749	-0.665483	-2.290394	-78.252304	-116.301484
59037		9.575341	-0.106390	1.970821	-0.018520	0.007393	0.007583	0.398537	-0.544107	-0.319704	-0.665511	-2.296667	-78.250339	-116.301733
59038		9.567902	-0.116350	1.993105	-0.019243	0.006537	0.012146	0.398525	-0.544128	-0.319650	-0.665527	-2.314932	-78.248749	-116.289661
59039		9.605467	-0.100511	1.985974	-0.024775	0.009763	0.010620	0.398482	-0.544159	-0.319557	-0.665572	-2.334619	-78.245548	-116.282630
59040		9.585355	-0.079601	2.016774	-0.024481	0.011227	0.010983	0.398460	-0.544173	-0.319479	-0.665612	-2.352148	-78.241298	-116.274374
59041		9.644336	-0.074868	2.012987	-0.023116	0.016189	0.009030	0.398446	-0.544162	-0.319403	-0.665665	-2.363089	-78.234190	-116.271429
59042		9.592065	-0.073590	1.997868	-0.018620	0.013903	0.007424	0.398432	-0.544149	-0.319349	-0.665710	-2.367161	-78.228492	-116.273489
59043		9.591707	-0.074585	1.999550	-0.015147	0.021422	0.006290	0.398437	-0.544104	-0.319293	-0.665771	-2.366286	-78.218499	-116.278580
59044		9.553543	-0.092729	2.009324	-0.010651	0.019136	0.004684	0.398444	-0.544054	-0.319262	-0.665822	-2.357686	-78.209871	-116.288921
59045		9.553122	-0.093344	2.011296	-0.009820	0.022349	0.003890	0.398465	-0.543984	-0.319239	-0.665879	-2.345065	-78.199294	-116.301204
59046		9.566886	-0.113839	2.037698	-0.012169	0.019507	0.004592	0.398468	-0.543935	-0.319202	-0.665934	-2.337074	-78.190454	-116.311812
59047		9.550716	-0.105874	1.982484	-0.015498	0.018784	0.004045	0.398463	-0.543893	-0.319160	-0.665992	-2.330038	-78.181983	-116.322817
59048		9.573418	-0.106748	2.019759	-0.018722	0.020414	0.007264	0.398458	-0.543859	-0.319093	-0.666055	-2.333032	-78.172562	-116.326039
59049		9.529964	-0.085429	2.016153	-0.018429	0.021878	0.007629	0.398441	-0.543833	-0.319004	-0.666129	-2.339839	-78.162511	-116.328667
59050		9.588802	-0.080301	2.013214	-0.019999	0.021072	0.005653	0.398429	-0.543796	-0.318935	-0.666199	-2.339093	-78.152750	-116.336458
59051		9.536459	-0.078577	1.998502	-0.012172	0.019508	0.004598	0.398429	-0.543751	-0.318894	-0.666255	-2.332825	-78.143943	-116.346017
59052		9.528710	-0.087901	2.021963	-0.018292	0.019814	0.002343	0.398409	-0.543710	-0.318843	-0.666325	-2.322239	-78.134979	-116.362864
59053		9.558750	-0.079741	2.037576	-0.020156	0.017545	0.000002	0.398360	-0.543684	-0.318784	-0.666403	-2.308431	-78.127505	-116.386322
59054		9.544263	-0.060230	2.014759	-0.020451	0.016083	-0.000362	0.398319	-0.543656	-0.318741	-0.666472	-2.292170	-78.120738	-116.410234
59055		9.552833	-0.040756	2.027397	-0.020158	0.017546	0.000004	0.398281	-0.543624	-0.318691	-0.666544	-2.277671	-78.113129	-116.432563
59056		9.563595	-0.083473	1.987905	-0.016977	0.011472	0.002228	0.398250	-0.543608	-0.318661	-0.666590	-2.267002	-78.108941	-116.448726
59057		9.518145	-0.110256	2.018598	-0.020595	0.018147	0.004930	0.398237	-0.543577	-0.318605	-0.666650	-2.264775	-78.100764	-116.457001
59058		9.557159	-0.082329	2.044921	-0.019819	0.011326	-0.001362	0.398186	-0.543561	-0.318576	-0.666707	-2.246020	-78.096739	-116.483093
59059		9.533913	-0.082791	2.010443	-0.030242	0.009760	0.001907	0.398106	-0.543584	-0.318495	-0.666775	-2.244166	-78.093649	-116.499987
59060		9.555208	-0.094875	2.014206	-0.028676	0.010565	0.003887	0.398047	-0.543597	-0.318423	-0.666834	-2.244837	-78.089941	-116.511412
59061		9.586901	-0.075926	2.061819	-0.026378	0.012234	0.001308	0.397989	-0.543596	-0.318362	-0.666898	-2.237478	-78.085320	-116.529816
59062		9.568840	-0.116270	2.040818	-0.021533	0.012585	0.001955	0.397947	-0.543585	-0.318315	-0.666955	-2.228612	-78.080498	-116.546805
59063		9.575960	-0.107827	2.020490	-0.014193	0.013720	-0.003384	0.397905	-0.543551	-0.318300	-0.667015	-2.202223	-78.075181	-116.578272
59064		9.545296	-0.116583	2.007825	-0.019528	0.012792	-0.000991	0.397858	-0.543530	-0.318268	-0.667075	-2.184235	-78.070302	-116.603412
59065		9.523524	-0.105733	2.006279	-0.014633	0.014316	0.001543	0.397838	-0.543498	-0.318243	-0.667126	-2.170453	-78.064453	-116.621173
59066		9.537369	-0.126058	2.031861	-0.019823	0.011331	-0.001357	0.397787	-0.543483	-0.318213	-0.667183	-2.151827	-78.060417	-116.647139
59067		9.531946	-0.086648	2.019588	-0.017278	0.010011	0.001869	0.397741	-0.543479	-0.318175	-0.667231	-2.142337	-78.057192	-116.664394
59068		9.545821	-0.107180	2.044989	-0.018502	0.011844	0.002143	0.397706	-0.543465	-0.318139	-0.667280	-2.132400	-78.052784	-116.680706
59069		9.567080	-0.118887	2.048903	-0.015223	0.011392	0.000811	0.397679	-0.543441	-0.318122	-0.667324	-2.116763	-78.048597	-116.700333
59070		9.590552	-0.081904	2.017982	-0.013706	0.011022	0.000905	0.397652	-0.543418	-0.318107	-0.667366	-2.100831	-78.044685	-116.719963
59071		9.552530	-0.099654	2.026641	-0.015224	0.011393	0.000812	0.397617	-0.543400	-0.318081	-0.667414	-2.087016	-78.040601	-116.739307
59072		9.552301	-0.100276	2.027689	-0.017476	0.010894	0.005277	0.397594	-0.543392	-0.318043	-0.667453	-2.085094	-78.036669	-116.746825
59073		9.537994	-0.081048	2.004342	-0.015714	0.010813	0.003851	0.397561	-0.543385	-0.318003	-0.667497	-2.079973	-78.032915	-116.758585
59074		9.530395	-0.090458	2.026727	-0.013267	0.007147	0.003302	0.397537	-0.543378	-0.317991	-0.667523	-2.070681	-78.031169	-116.771173
59075		9.530224	-0.090917	2.027511	-0.014001	0.009561	0.000539	0.397519	-0.543352	-0.317990	-0.667555	-2.053890	-78.027929	-116.789572
59076		9.551520	-0.102491	2.031253	-0.015519	0.009932	0.000446	0.397484	-0.543336	-0.317973	-0.667598	-2.037918	-78.024645	-116.810306
59077		9.538725	-0.071874	2.040442	-0.017576	0.008551	0.001504	0.397446	-0.543330	-0.317948	-0.667637	-2.026945	-78.022107	-116.827072
59078		9.522250	-0.100979	2.051570	-0.019388	0.007460	0.001042	0.397398	-0.543330	-0.317921	-0.667678	-2.015050	-78.020226	-116.845906
59079		9.545850	-0.064133	2.020275	-0.019928	0.005707	0.002193	0.397349	-0.543340	-0.317890	-0.667713	-2.007650	-78.019328	-116.860809
59080		9.538294	-0.073387	2.042399	-0.016108	0.007009	-0.000289	0.397305	-0.543333	-0.317879	-0.667751	-1.990335	-78.017730	-116.883263
59081		9.541872	-0.013964	2.040965	-0.021004	0.005490	-0.002826	0.397246	-0.543333	-0.317867	-0.667791	-1.969646	-78.016944	-116.910523
59082		9.539459	-0.062757	2.076426	-0.021395	0.010539	-0.003330	0.397183	-0.543320	-0.317839	-0.667853	-1.946844	-78.013381	-116.941683
59083		9.530488	-0.082692	2.065656	-0.017871	-0.001764	-0.002504	0.397115	-0.543342	-0.317845	-0.667872	-1.926191	-78.016811	-116.968534
59084		9.512132	-0.095479	1.942929	0.001128	-0.004175	-0.004053	0.397087	-0.543333	-0.317924	-0.667859	-1.889859	-78.021681	-117.000332
59085		9.515178	-0.072636	2.007686	0.004217	-0.009308	-0.012939	0.397029	-0.543322	-0.318043	-0.667846	-1.829505	-78.029670	-117.055398
59086		9.507181	-0.117553	2.095694	-0.007825	-0.009559	-0.020867	0.396912	-0.543321	-0.318148	-0.667866	-1.753238	-78.037911	-117.133259
59087		9.575509	-0.090283	2.101509	-0.026682	-0.003639	-0.013651	0.396769	-0.543356	-0.318149	-0.667922	-1.708433	-78.042721	-117.191830
59088		9.573431	-0.074702	1.968399	-0.039715	-0.002789	0.002776	0.396656	-0.543434	-0.318070	-0.667964	-1.713713	-78.046658	-117.205009
59089		9.508977	-0.042132	1.959729	-0.031784	-0.002012	0.005500	0.396573	-0.543498	-0.318007	-0.667990	-1.722175	-78.050093	-117.210480
59090		9.492863	-0.071768	1.969144	-0.034721	-0.016630	0.001800	0.396448	-0.543610	-0.317975	-0.667989	-1.723070	-78.061974	-117.225217
59091		9.490938	-0.121243	2.002353	-0.036681	-0.012378	-0.000680	0.396325	-0.543703	-0.317941	-0.668002	-1.717628	-78.071331	-117.246127
59092		9.483771	-0.130912	2.022651	-0.033843	-0.012243	0.002914	0.396213	-0.543801	-0.317900	-0.668009	-1.720656	-78.080680	-117.258169
59093		9.513013	-0.134120	2.002301	-0.029239	-0.021036	0.001429	0.396083	-0.543925	-0.317883	-0.667993	-1.719982	-78.095221	-117.273508
59094		9.595723	-0.128726	2.030938	-0.013273	-0.022701	-0.000318	0.396000	-0.544011	-0.317940	-0.667945	-1.703255	-78.110614	-117.293692
59095		9.605088	-0.108760	2.039909	-0.007789	-0.023809	-0.008007	0.395898	-0.544083	-0.318032	-0.667903	-1.664122	-78.126845	-117.334780
59096		9.614480	-0.088291	2.048790	-0.009357	-0.024606	-0.009987	0.395790	-0.544153	-0.318132	-0.667862	-1.618798	-78.143483	-117.381891
59097		9.584606	-0.096084	2.032413	-0.012689	-0.025324	-0.010539	0.395670	-0.544231	-0.318223	-0.667826	-1.574142	-78.160515	-117.430313
59098		9.588719	-0.035577	2.028458	-0.011026	-0.018891	-0.012092	0.395559	-0.544282	-0.318312	-0.667808	-1.523340	-78.173897	-117.483991
59099		9.580223	-0.054485	2.015395	-0.009752	-0.019555	-0.010482	0.395452	-0.544337	-0.318398	-0.667785	-1.476766	-78.187649	-117.533414
59100		9.576884	-0.002922	2.033250	-0.012790	-0.018813	-0.010663	0.395341	-0.544394	-0.318477	-0.667767	-1.430658	-78.200947	-117.583325
59101		9.589844	-0.033258	2.023173	-0.007302	-0.014374	-0.007388	0.395267	-0.544428	-0.318558	-0.667745	-1.390364	-78.211587	-117.623592
59102		9.588598	-0.043369	1.989122	-0.008091	-0.013121	-0.012034	0.395173	-0.544453	-0.318646	-0.667738	-1.337230	-78.221627	-117.677927
59103		9.574679	-0.022270	1.963765	-0.001135	-0.010220	-0.010561	0.395114	-0.544456	-0.318749	-0.667721	-1.284610	-78.229901	-117.726916
59104		9.581675	-0.050620	2.008582	-0.004852	-0.009194	-0.004295	0.395061	-0.544474	-0.318818	-0.667705	-1.250503	-78.237574	-117.759914
59105		9.601787	-0.072428	1.977962	-0.014652	-0.003382	-0.005701	0.394981	-0.544495	-0.318840	-0.667724	-1.219516	-78.242001	-117.796711
59106		9.589213	-0.041170	1.986202	-0.007989	-0.001942	-0.004600	0.394931	-0.544495	-0.318885	-0.667733	-1.185880	-78.245517	-117.831064
59107		9.596570	-0.032036	1.964677	-0.010439	0.001722	-0.004037	0.394878	-0.544492	-0.318909	-0.667755	-1.156169	-78.246947	-117.863560
59108		9.571386	-0.080502	1.964028	-0.011857	0.004427	-0.000347	0.394842	-0.544485	-0.318917	-0.667779	-1.136081	-78.246759	-117.886337
59109		9.558655	-0.049721	1.973008	-0.010044	0.005517	0.000114	0.394794	-0.544484	-0.318909	-0.667811	-1.118683	-78.246158	-117.908914
59110		9.567430	-0.030243	1.984764	-0.011807	0.005593	0.001543	0.394766	-0.544476	-0.318910	-0.667834	-1.103712	-78.245279	-117.926436
59111		9.579962	-0.061575	1.976725	-0.007250	0.004481	0.001813	0.394751	-0.544464	-0.318926	-0.667845	-1.088193	-78.245023	-117.941836
59112		9.573033	-0.032889	1.931618	-0.004850	0.008494	0.003017	0.394751	-0.544435	-0.318940	-0.667862	-1.073148	-78.242463	-117.955362
59113		9.565527	-0.042262	1.953831	-0.010238	0.006389	0.003523	0.394733	-0.544426	-0.318937	-0.667881	-1.063324	-78.241109	-117.967109
59114		9.560959	-0.030478	2.041993	-0.032284	0.018373	0.008590	0.394693	-0.544427	-0.318825	-0.667957	-1.078831	-78.232830	-117.965485
59115		9.552305	-0.013934	1.965205	-0.029978	0.016747	0.013326	0.394678	-0.544433	-0.318716	-0.668014	-1.105870	-78.225344	-117.949762
59116		9.541525	-0.046406	1.923055	-0.020916	0.022198	0.015638	0.394698	-0.544411	-0.318615	-0.668068	-1.133982	-78.214795	-117.928606
59117		9.532312	-0.067793	1.913377	-0.005433	0.011105	0.013248	0.394718	-0.544402	-0.318577	-0.668081	-1.149938	-78.210828	-117.914053
59118		9.584903	-0.098954	2.030875	0.006424	0.006674	0.013596	0.394782	-0.544374	-0.318604	-0.668054	-1.157592	-78.209193	-117.897794
59119		9.541696	-0.077580	2.026291	0.002944	0.011301	0.011034	0.394828	-0.544338	-0.318609	-0.668053	-1.161826	-78.205018	-117.888410
59120		9.532595	-0.098366	2.015983	-0.011903	0.008801	0.008733	0.394829	-0.544331	-0.318584	-0.668071	-1.166514	-78.202220	-117.885908
59121		9.587977	-0.042728	2.031824	-0.014156	0.008286	0.013198	0.394834	-0.544340	-0.318535	-0.668083	-1.185721	-78.199677	-117.870625
59122		9.595176	-0.035300	2.011229	-0.015136	0.010415	0.011963	0.394839	-0.544339	-0.318487	-0.668104	-1.201016	-78.195916	-117.859179
59123		9.587575	-0.045988	2.033649	-0.016116	0.009233	0.018037	0.394846	-0.544364	-0.318407	-0.668118	-1.236039	-78.192920	-117.830842
59124		9.559165	-0.007631	1.986211	-0.017096	0.011362	0.016802	0.394864	-0.544372	-0.318337	-0.668134	-1.265635	-78.188554	-117.805933
59125		9.537430	0.001830	1.984630	-0.013275	0.012670	0.014320	0.394874	-0.544371	-0.318273	-0.668159	-1.287434	-78.183582	-117.788914
59126		9.522364	-0.017670	2.028773	-0.011757	0.012298	0.014411	0.394899	-0.544361	-0.318226	-0.668175	-1.307329	-78.178706	-117.770788
59127		9.585120	-0.063833	2.005267	-0.015384	0.010122	0.013484	0.394886	-0.544379	-0.318151	-0.668204	-1.329835	-78.175349	-117.756381
59128		9.548574	-0.072153	2.046496	-0.015335	0.011287	0.015377	0.394903	-0.544381	-0.318092	-0.668220	-1.354457	-78.171036	-117.735521
59129		9.564715	-0.045289	2.037113	-0.018279	0.005521	0.015310	0.394899	-0.544412	-0.318028	-0.668228	-1.382203	-78.170071	-117.714063
59130		9.577162	-0.077988	2.029125	-0.020826	0.006859	0.012094	0.394884	-0.544434	-0.317968	-0.668247	-1.401264	-78.168337	-117.702099
59131		9.541478	-0.048213	2.002795	-0.019799	0.005894	0.015221	0.394882	-0.544462	-0.317905	-0.668255	-1.428920	-78.167072	-117.680417
59132		9.550237	-0.030394	2.014781	-0.024062	0.008474	0.015325	0.394871	-0.544491	-0.317822	-0.668278	-1.458547	-78.164364	-117.659551
59133		9.548605	-0.043046	1.982684	-0.019801	0.005895	0.015223	0.394856	-0.544528	-0.317746	-0.668294	-1.487558	-78.163259	-117.639141
59134		9.541067	-0.053801	2.004609	-0.012207	0.004028	0.015675	0.394871	-0.544548	-0.317710	-0.668285	-1.511649	-78.163088	-117.616992
59135		9.553545	-0.086454	1.996352	-0.013776	0.003238	0.013692	0.394875	-0.544572	-0.317675	-0.668280	-1.532180	-78.163388	-117.599409
59136		9.531982	-0.076592	1.993988	-0.009951	0.004545	0.011211	0.394882	-0.544579	-0.317657	-0.668278	-1.542742	-78.162986	-117.589762
59137		9.551950	-0.099959	1.963979	-0.011920	-0.003349	0.012373	0.394870	-0.544624	-0.317639	-0.668258	-1.559861	-78.167144	-117.575854
59138		9.532013	-0.079201	1.993736	-0.011428	-0.002756	0.009337	0.394855	-0.544655	-0.317636	-0.668242	-1.566694	-78.170953	-117.570881
59139		9.553531	-0.091863	1.996177	-0.015205	-0.002898	0.013712	0.394842	-0.544704	-0.317605	-0.668224	-1.588582	-78.174793	-117.553387
59140		9.569981	-0.064844	1.985597	-0.014524	-0.006489	0.014571	0.394830	-0.544763	-0.317585	-0.668193	-1.611810	-78.180655	-117.533476
59141		9.541174	-0.064063	2.003801	-0.013736	-0.004435	0.011910	0.394824	-0.544804	-0.317579	-0.668167	-1.626683	-78.185260	-117.520145
59142		9.557634	-0.036798	1.993241	-0.012217	-0.004809	0.012000	0.394813	-0.544848	-0.317570	-0.668141	-1.641451	-78.190200	-117.507527
59143		9.541342	-0.066950	2.002905	-0.015502	-0.004357	0.013339	0.394778	-0.544913	-0.317526	-0.668129	-1.664752	-78.195085	-117.491971
59144		9.541463	-0.068328	2.002281	-0.014379	-0.008517	0.009266	0.394746	-0.544970	-0.317525	-0.668103	-1.673589	-78.202193	-117.486678
59145		9.527537	-0.049139	1.977614	-0.019074	-0.002044	0.006998	0.394714	-0.545005	-0.317510	-0.668100	-1.678020	-78.205498	-117.486887
59146		9.541680	-0.070363	2.001174	-0.011146	-0.010131	0.006033	0.394678	-0.545055	-0.317532	-0.668070	-1.676273	-78.213583	-117.490515
59147		9.540337	-0.081877	1.967543	-0.010553	-0.007211	0.006785	0.394647	-0.545099	-0.317543	-0.668047	-1.677368	-78.220001	-117.491576
59148		9.572412	-0.063778	2.013642	-0.014134	-0.008219	0.007749	0.394611	-0.545152	-0.317547	-0.668024	-1.681890	-78.226962	-117.490547
59149		9.557052	-0.055060	1.955785	-0.014481	-0.010840	0.005479	0.394560	-0.545212	-0.317557	-0.667999	-1.681601	-78.235466	-117.495214
59150		9.572807	-0.065537	2.011708	-0.017520	-0.010090	0.005301	0.394504	-0.545274	-0.317559	-0.667981	-1.681484	-78.243541	-117.500905
59151		9.571446	-0.077104	1.978085	-0.018446	-0.006796	0.005965	0.394457	-0.545326	-0.317553	-0.667970	-1.683821	-78.249656	-117.504004
59152		9.571622	-0.078070	1.977196	-0.019582	-0.011472	0.006356	0.394396	-0.545398	-0.317548	-0.667949	-1.687898	-78.258504	-117.506619
59153		9.541384	-0.087421	1.962218	-0.015655	-0.007844	0.007662	0.394358	-0.545452	-0.317546	-0.667928	-1.693567	-78.265221	-117.505187
59154		9.517716	-0.125967	1.992965	-0.012125	-0.007997	0.004803	0.394318	-0.545496	-0.317564	-0.667908	-1.688807	-78.272106	-117.512464
59155		9.543252	-0.078159	1.993374	-0.012227	-0.010319	0.001013	0.394253	-0.545547	-0.317587	-0.667893	-1.675274	-78.280479	-117.530348
59156		9.555939	-0.109653	1.983716	-0.012422	-0.009456	0.004427	0.394209	-0.545595	-0.317608	-0.667870	-1.669743	-78.288205	-117.538584
59157		9.563546	-0.101380	1.961345	-0.012668	-0.009755	0.005946	0.394185	-0.545637	-0.317639	-0.667835	-1.667466	-78.295860	-117.540690
59158		9.586734	-0.102922	1.995904	-0.015707	-0.009004	0.005770	0.394137	-0.545692	-0.317644	-0.667816	-1.667481	-78.303305	-117.545186
59159		9.565440	-0.092370	1.992420	-0.012126	-0.007997	0.004805	0.394101	-0.545733	-0.317665	-0.667794	-1.662907	-78.310123	-117.551572
59160		9.594468	-0.095529	1.972864	-0.009282	-0.007886	0.008394	0.394081	-0.545776	-0.317682	-0.667762	-1.666409	-78.316883	-117.548747
59161		9.617602	-0.097031	2.007730	-0.006432	-0.004446	0.004680	0.394058	-0.545800	-0.317706	-0.667745	-1.658999	-78.321769	-117.556310
59162		9.564217	-0.105120	1.957873	-0.004370	-0.003064	0.003626	0.394043	-0.545810	-0.317744	-0.667728	-1.646084	-78.325846	-117.567375
59163		9.594740	-0.097353	1.971451	-0.000601	-0.006248	0.006550	0.394049	-0.545825	-0.317795	-0.667688	-1.639804	-78.331617	-117.568642
59164		9.558548	-0.104739	2.011185	-0.003342	-0.004037	0.006751	0.394046	-0.545840	-0.317829	-0.667661	-1.635030	-78.336201	-117.570792
59165		9.566039	-0.096500	1.989344	-0.003588	-0.004336	0.008270	0.394044	-0.545863	-0.317855	-0.667631	-1.635863	-78.340966	-117.567899
59166		9.582510	-0.068641	1.978916	-0.006380	-0.003285	0.006576	0.394034	-0.545882	-0.317877	-0.667611	-1.632282	-78.345122	-117.570608
59167		9.575132	-0.078519	2.000142	-0.004512	-0.001042	0.008936	0.394029	-0.545900	-0.317885	-0.667595	-1.635320	-78.348044	-117.567418
59168		9.573555	-0.090016	1.967305	-0.003969	0.000716	0.007795	0.394035	-0.545903	-0.317905	-0.667580	-1.633423	-78.349888	-117.566996
59169		9.573542	-0.090733	1.967333	0.000834	-0.000113	0.006539	0.394040	-0.545904	-0.317936	-0.667561	-1.627067	-78.352322	-117.570100
59170		9.553659	-0.069607	1.997509	0.001914	0.000073	0.011559	0.394074	-0.545903	-0.317966	-0.667528	-1.632310	-78.354473	-117.558948
59171		9.582502	-0.072887	1.978803	-0.002152	0.001799	0.008259	0.394088	-0.545901	-0.317987	-0.667512	-1.631282	-78.355667	-117.556774
59172		9.559436	-0.072886	1.943511	-0.000387	0.001722	0.006828	0.394102	-0.545891	-0.318019	-0.667495	-1.624568	-78.356951	-117.559175
59173		9.591410	-0.054666	1.990570	0.001430	0.002805	0.007293	0.394129	-0.545874	-0.318056	-0.667476	-1.618573	-78.357532	-117.559183
59174		9.551880	-0.083264	1.965555	0.003545	0.005347	0.008135	0.394164	-0.545847	-0.318091	-0.667461	-1.612951	-78.356718	-117.558170
59175		9.580638	-0.086312	1.947278	0.003545	0.005347	0.008135	0.394188	-0.545829	-0.318113	-0.667451	-1.609404	-78.356055	-117.557309
59176		9.582158	-0.076274	1.980345	0.002598	-0.000190	0.005108	0.394201	-0.545818	-0.318164	-0.667428	-1.596344	-78.358461	-117.564442
59177		9.589511	-0.067767	1.959242	0.004089	0.007105	0.006993	0.394233	-0.545785	-0.318195	-0.667421	-1.587928	-78.356695	-117.566758
59178		9.618248	-0.070626	1.941101	0.002518	0.006321	0.005010	0.394257	-0.545752	-0.318233	-0.667416	-1.574139	-78.355373	-117.574685
59179		9.546372	-0.046085	1.955148	0.009918	0.005300	0.008863	0.394299	-0.545724	-0.318273	-0.667395	-1.569426	-78.354736	-117.571641
59180		9.558694	-0.077602	1.946979	0.008891	0.006274	0.005738	0.394342	-0.545679	-0.318330	-0.667379	-1.554016	-78.353429	-117.577493
59181		9.528135	-0.086311	1.933486	0.006828	0.004893	0.006792	0.394387	-0.545642	-0.318385	-0.667356	-1.542823	-78.352805	-117.579115
59182		9.549530	-0.098197	1.936340	0.010243	-0.000912	0.007444	0.394429	-0.545622	-0.318457	-0.667315	-1.531920	-78.355588	-117.579576
59183		9.549517	-0.098671	1.936382	0.007750	0.001598	0.006127	0.394451	-0.545605	-0.318504	-0.667292	-1.521197	-78.357102	-117.583804
59184		9.528117	-0.088050	1.933498	0.001989	-0.006435	0.011661	0.394474	-0.545626	-0.318547	-0.667240	-1.527152	-78.362983	-117.571880
59185		9.587554	-0.083153	1.928129	0.003754	-0.006513	0.010230	0.394478	-0.545656	-0.318579	-0.667198	-1.531345	-78.369170	-117.564738
59186		9.544789	-0.061003	1.922253	0.004739	-0.005320	0.004155	0.394486	-0.545656	-0.318650	-0.667160	-1.514764	-78.374527	-117.574215
59187		9.532497	-0.030483	1.930315	0.006739	-0.008428	0.008511	0.394503	-0.545674	-0.318714	-0.667104	-1.510694	-78.381669	-117.571001
59188		9.568060	-0.062807	1.956433	0.007828	-0.004913	0.006227	0.394527	-0.545670	-0.318788	-0.667058	-1.498067	-78.386762	-117.574634
59189		9.573144	-0.103318	1.968652	0.010619	-0.005965	0.007922	0.394556	-0.545672	-0.318862	-0.667004	-1.489889	-78.392488	-117.573385
59190		9.567642	-0.035899	1.855079	0.021519	-0.015978	0.005225	0.394597	-0.545676	-0.319007	-0.666908	-1.467404	-78.403932	-117.579073
59191		9.504383	-0.029317	1.945396	0.020440	-0.016167	0.000204	0.394609	-0.545680	-0.319153	-0.666826	-1.432956	-78.415628	-117.599205
59192		9.563154	-0.061321	2.006191	0.013338	-0.013686	-0.003272	0.394603	-0.545680	-0.319289	-0.666766	-1.391171	-78.425878	-117.629378
59193		9.636741	-0.075781	2.024272	-0.014304	-0.011683	0.002079	0.394542	-0.545736	-0.319313	-0.666745	-1.380644	-78.434905	-117.643976
59194		9.682966	-0.012343	1.927916	-0.018863	0.002630	0.014603	0.394533	-0.545773	-0.319261	-0.666745	-1.406180	-78.435559	-117.624264
59195		9.566715	0.023203	1.903607	-0.014009	0.002958	0.015242	0.394527	-0.545809	-0.319209	-0.666743	-1.432836	-78.436140	-117.603073
59196		9.585642	-0.038767	1.940695	-0.015335	0.002472	0.011741	0.394518	-0.545834	-0.319176	-0.666743	-1.448356	-78.436922	-117.591522
59197		9.583128	-0.089204	1.975101	-0.015335	0.002472	0.011741	0.394510	-0.545860	-0.319144	-0.666743	-1.463718	-78.437658	-117.580095
59198		9.559104	-0.128391	2.007168	-0.012567	0.009091	0.015231	0.394530	-0.545864	-0.319098	-0.666750	-1.486944	-78.434596	-117.559059
59199		9.529398	-0.099770	1.926603	-0.000098	-0.000142	0.014513	0.394566	-0.545875	-0.319110	-0.666714	-1.502848	-78.436832	-117.538755
59200		9.586262	-0.143802	1.955824	0.014746	-0.003213	0.005809	0.394610	-0.545851	-0.319205	-0.666662	-1.484945	-78.440957	-117.543727
59201		9.581384	-0.104035	1.942738	0.014446	-0.004671	0.005433	0.394641	-0.545839	-0.319292	-0.666612	-1.468482	-78.446071	-117.549442
59202		9.569112	-0.072855	1.950935	0.010222	-0.006425	-0.003554	0.394636	-0.545820	-0.319404	-0.666577	-1.427137	-78.452171	-117.580985
59203		9.576658	-0.063607	1.928923	0.001892	-0.005430	0.000566	0.394621	-0.545824	-0.319469	-0.666551	-1.404081	-78.457695	-117.599729
59204		9.555366	-0.052409	1.925614	0.003891	-0.008537	0.004922	0.394624	-0.545838	-0.319541	-0.666503	-1.390231	-78.464880	-117.606911
59205		9.557138	-0.042006	1.957669	0.007719	-0.007238	0.002435	0.394647	-0.545826	-0.319644	-0.666450	-1.365781	-78.471151	-117.619762
59206		9.573758	-0.013466	1.946862	0.009237	-0.007616	0.002523	0.394658	-0.545822	-0.319738	-0.666401	-1.342031	-78.477840	-117.633921
59207		9.557409	-0.042174	1.956344	0.006500	-0.005402	0.002724	0.394662	-0.545821	-0.319812	-0.666365	-1.322351	-78.483321	-117.646621
59208		9.586372	-0.044976	1.936955	0.000908	-0.006619	0.006644	0.394666	-0.545837	-0.319865	-0.666324	-1.314863	-78.489383	-117.649054
59209		9.579042	-0.054310	1.957939	-0.000846	-0.003215	0.000768	0.394647	-0.545840	-0.319916	-0.666309	-1.293393	-78.493627	-117.667848
59210		9.616946	-0.037432	1.950448	-0.003174	0.002781	0.005135	0.394649	-0.545830	-0.319941	-0.666303	-1.283387	-78.494323	-117.675237
59211		9.616895	-0.037891	1.950693	0.000108	0.002323	0.003791	0.394643	-0.545823	-0.319967	-0.666300	-1.270489	-78.495453	-117.686337
59212		9.598714	-0.077383	1.928335	-0.000618	0.004754	0.001040	0.394642	-0.545795	-0.320008	-0.666303	-1.247371	-78.495070	-117.705612
59213		9.593667	-0.037493	1.916117	-0.000318	0.006213	0.001416	0.394637	-0.545769	-0.320037	-0.666314	-1.226771	-78.493936	-117.723926
59214		9.548181	-0.063938	1.945788	-0.003001	0.009589	0.003513	0.394646	-0.545733	-0.320054	-0.666330	-1.211692	-78.490750	-117.736390
59215		9.585894	-0.047233	1.939266	-0.006284	0.010048	0.004857	0.394637	-0.545714	-0.320042	-0.666356	-1.203932	-78.487412	-117.745834
59216		9.578252	-0.057053	1.961722	-0.008241	0.010993	0.009704	0.394655	-0.545694	-0.320022	-0.666372	-1.209193	-78.483347	-117.740606
59217		9.608492	-0.049780	1.976836	-0.004412	0.012290	0.007217	0.394669	-0.545664	-0.320010	-0.666393	-1.207635	-78.478681	-117.741666
59218		9.615634	-0.041789	1.956820	-0.003706	0.017531	0.011761	0.394716	-0.545617	-0.319986	-0.666416	-1.215682	-78.470846	-117.730941
59219		9.604672	-0.073065	1.914083	-0.010786	0.012345	0.006490	0.394721	-0.545592	-0.319964	-0.666444	-1.214090	-78.466056	-117.733889
59220		9.592619	-0.070888	2.024366	-0.025935	0.024962	0.009303	0.394711	-0.545560	-0.319859	-0.666527	-1.227512	-78.453994	-117.730677
59221		9.541185	-0.030976	1.943081	-0.025106	0.024852	0.015846	0.394721	-0.545540	-0.319734	-0.666597	-1.259659	-78.441950	-117.708653
59222		9.560490	-0.055012	1.915406	-0.016616	0.027336	0.017419	0.394767	-0.545495	-0.319633	-0.666655	-1.290250	-78.428424	-117.682465
59223		9.550963	-0.076394	1.906323	-0.001787	0.020930	0.016028	0.394842	-0.545438	-0.319599	-0.666674	-1.309355	-78.418550	-117.658912
59224		9.608899	-0.110345	1.970439	0.007765	0.018092	0.011624	0.394921	-0.545366	-0.319613	-0.666680	-1.310289	-78.410392	-117.648736
59225		9.550733	-0.106474	2.009841	0.001991	0.021067	0.011648	0.394976	-0.545304	-0.319589	-0.666709	-1.316235	-78.400664	-117.639226
59226		9.514972	-0.075811	1.985112	-0.009185	0.021964	0.012170	0.395016	-0.545253	-0.319537	-0.666751	-1.328131	-78.390280	-117.627774
59227		9.509773	-0.037266	1.974008	-0.016585	0.011998	0.013819	0.395010	-0.545265	-0.319459	-0.666783	-1.352176	-78.385780	-117.611442
59228		9.552309	-0.061902	1.980574	-0.018053	0.013538	0.015628	0.395024	-0.545265	-0.319385	-0.666810	-1.379297	-78.380174	-117.589633
59229		9.539725	-0.032735	1.990441	-0.014047	0.010643	0.017037	0.395057	-0.545266	-0.319331	-0.666815	-1.408375	-78.376132	-117.562272
59230		9.546987	-0.025488	1.970148	-0.008396	0.013018	0.015022	0.395095	-0.545248	-0.319292	-0.666826	-1.428267	-78.370828	-117.542193
59231		9.589508	-0.049977	1.976753	-0.002023	0.012958	0.015756	0.395165	-0.545212	-0.319282	-0.666819	-1.446494	-78.365413	-117.517957
59232		9.583254	-0.049748	2.032385	-0.004013	0.016071	0.011399	0.395207	-0.545170	-0.319262	-0.666838	-1.453552	-78.358411	-117.508417
59233		9.602767	-0.073038	2.003754	-0.002744	0.015393	0.013008	0.395241	-0.545142	-0.319224	-0.666859	-1.467279	-78.351993	-117.494692
59234		9.641932	-0.046785	2.030896	-0.010284	0.018454	0.014460	0.395280	-0.545109	-0.319169	-0.666889	-1.486234	-78.343580	-117.476672
59235		9.615828	-0.096625	2.031542	-0.010601	0.024669	0.015885	0.395352	-0.545046	-0.319114	-0.666924	-1.507453	-78.331352	-117.453164
59236		9.639434	-0.060790	2.002565	-0.008784	0.025747	0.016355	0.395413	-0.544989	-0.319045	-0.666968	-1.530199	-78.318730	-117.430395
59237		9.608458	-0.070577	1.990942	-0.010053	0.026427	0.014747	0.395453	-0.544940	-0.318958	-0.667025	-1.552072	-78.305923	-117.412202
59238		9.586536	-0.060717	1.990818	-0.008236	0.027505	0.015217	0.395515	-0.544874	-0.318891	-0.667075	-1.571130	-78.292309	-117.392875
59239		9.534219	-0.059122	1.976334	-0.009890	0.022235	0.018638	0.395573	-0.544835	-0.318816	-0.667108	-1.601344	-78.281661	-117.363552
59240		9.541324	-0.051941	1.957081	-0.009390	0.022833	0.015601	0.395626	-0.544788	-0.318752	-0.667146	-1.622390	-78.270713	-117.342869
59241		9.540868	-0.053699	1.959258	-0.011159	0.022916	0.017031	0.395680	-0.544745	-0.318679	-0.667183	-1.649154	-78.259680	-117.317217
59242		9.554197	-0.075782	1.985578	-0.002517	0.023365	0.013306	0.395745	-0.544679	-0.318644	-0.667216	-1.659820	-78.248462	-117.303112
59243		9.541460	-0.046085	1.996375	-0.003370	0.020150	0.014067	0.395805	-0.544627	-0.318607	-0.667240	-1.674656	-78.239088	-117.285511
59244		9.591371	-0.061232	1.982312	0.000119	0.018825	0.009312	0.395856	-0.544564	-0.318601	-0.667265	-1.673153	-78.230536	-117.282292
59245		9.569619	-0.050634	1.981450	0.000419	0.020283	0.009692	0.395915	-0.544495	-0.318592	-0.667290	-1.673050	-78.221092	-117.277009
59246		9.561597	-0.060669	2.004867	-0.002569	0.022207	0.011410	0.395971	-0.544429	-0.318564	-0.667324	-1.678569	-78.210568	-117.268190
59247		9.568722	-0.052684	1.985723	-0.003283	0.024644	0.008662	0.396015	-0.544356	-0.318530	-0.667373	-1.678059	-78.198751	-117.267058
59248		9.539273	-0.051105	2.006676	-0.012992	0.024018	0.007356	0.396032	-0.544298	-0.318475	-0.667437	-1.678278	-78.187258	-117.269753
59249		9.538859	-0.052107	2.008616	-0.005292	0.016756	0.009801	0.396071	-0.544252	-0.318456	-0.667461	-1.681805	-78.179828	-117.263888
59250		9.546077	-0.044146	1.989112	-0.008692	0.022575	0.009150	0.396104	-0.544193	-0.318412	-0.667510	-1.684583	-78.169131	-117.261452
59251		9.545660	-0.044894	1.991096	-0.002464	0.019027	0.004200	0.396130	-0.544127	-0.318409	-0.667550	-1.671002	-78.160574	-117.272393
59252		9.530031	-0.063451	2.035623	-0.007572	0.018416	0.005063	0.396145	-0.544074	-0.318389	-0.667593	-1.662319	-78.152326	-117.281011
59253		9.557201	-0.077139	1.985925	-0.007572	0.018417	0.005064	0.396157	-0.544023	-0.318365	-0.667639	-1.654335	-78.144118	-117.289613
59254		9.536914	-0.055646	2.017737	-0.010656	0.018022	0.002981	0.396156	-0.543974	-0.318341	-0.667691	-1.641797	-78.136131	-117.303977
59255		9.557852	-0.067787	2.022417	-0.010008	0.022098	0.005643	0.396170	-0.543918	-0.318298	-0.667749	-1.637746	-78.125831	-117.310187
59256		9.536104	-0.057036	2.021522	-0.011164	0.017424	0.006019	0.396177	-0.543876	-0.318266	-0.667794	-1.633848	-78.118135	-117.316020
59257		9.526672	-0.077245	2.011783	-0.010357	0.019481	0.003364	0.396176	-0.543826	-0.318232	-0.667851	-1.623706	-78.109349	-117.328848
59258		9.556725	-0.069775	2.027668	-0.009994	0.014425	0.003831	0.396174	-0.543789	-0.318216	-0.667891	-1.613438	-78.103406	-117.340506
59259		9.547314	-0.089899	2.017834	-0.014911	0.020629	0.003088	0.396180	-0.543732	-0.318183	-0.667949	-1.603183	-78.093774	-117.352714
59260		9.525588	-0.078926	2.016847	-0.013995	0.017330	0.002418	0.396168	-0.543691	-0.318151	-0.668006	-1.591177	-78.086189	-117.368491
59261		9.502516	-0.078411	1.982822	-0.012477	0.016948	0.002511	0.396159	-0.543648	-0.318124	-0.668059	-1.578868	-78.078793	-117.383751
59262		9.532588	-0.070854	1.998621	-0.009742	0.014725	0.002315	0.396153	-0.543607	-0.318111	-0.668101	-1.564374	-78.072700	-117.399582
59263		9.533668	-0.060680	2.032876	-0.007970	0.014642	0.000890	0.396146	-0.543562	-0.318105	-0.668145	-1.546089	-78.066666	-117.418789
59264		9.553332	-0.083055	2.004220	-0.011261	0.015108	0.002223	0.396136	-0.543523	-0.318087	-0.668191	-1.532221	-78.060353	-117.434870
59265		9.553063	-0.083527	2.005483	-0.010598	0.011510	0.003070	0.396120	-0.543499	-0.318070	-0.668229	-1.521409	-78.056144	-117.448610
59266		9.563247	-0.053757	2.050919	-0.008616	0.010569	-0.001774	0.396097	-0.543463	-0.318080	-0.668266	-1.495557	-78.052490	-117.475391
59267		9.553962	-0.073399	2.040523	-0.008271	0.013185	0.000509	0.396087	-0.543423	-0.318079	-0.668306	-1.476666	-78.047296	-117.495043
59268		9.562721	-0.054179	2.053362	-0.008227	0.014343	0.002410	0.396085	-0.543380	-0.318072	-0.668345	-1.461682	-78.041415	-117.510488
59269		9.553376	-0.073966	2.043242	-0.009235	0.015326	-0.000719	0.396062	-0.543339	-0.318057	-0.668400	-1.441080	-78.035135	-117.534312
59270		9.583430	-0.066247	2.059065	-0.007928	0.015802	0.002794	0.396065	-0.543291	-0.318047	-0.668441	-1.426896	-78.028411	-117.548765
59271		9.561738	-0.055175	2.057906	-0.007328	0.018718	0.003560	0.396062	-0.543242	-0.318018	-0.668496	-1.415801	-78.020137	-117.562309
59272		9.576778	-0.037480	2.016927	-0.009191	0.016485	0.001183	0.396057	-0.543192	-0.318007	-0.668545	-1.397984	-78.013043	-117.581217
59273		9.530631	-0.063885	2.046969	-0.005256	0.020094	0.002520	0.396061	-0.543133	-0.317986	-0.668601	-1.383186	-78.003981	-117.597074
59274		9.530223	-0.064383	2.048851	-0.005768	0.019494	0.005556	0.396085	-0.543073	-0.317968	-0.668644	-1.375040	-77.995101	-117.604091
59275		9.551146	-0.076332	2.053552	-0.003482	0.020012	0.001096	0.396085	-0.543012	-0.317952	-0.668701	-1.356363	-77.986175	-117.623749
59276		9.535855	-0.066576	1.998240	-0.003332	0.015812	0.004977	0.396107	-0.542958	-0.317952	-0.668732	-1.345529	-77.979411	-117.632088
59277		9.520084	-0.085399	2.042408	-0.008400	0.016360	0.007732	0.396131	-0.542917	-0.317928	-0.668763	-1.346119	-77.972273	-117.631107
59278		9.506139	-0.065725	2.019829	-0.009918	0.016744	0.007639	0.396146	-0.542877	-0.317896	-0.668801	-1.346165	-77.964940	-117.632180
59279		9.507087	-0.056257	2.054312	-0.006839	0.017135	0.009729	0.396174	-0.542837	-0.317865	-0.668832	-1.351072	-77.957407	-117.627105
59280		9.514499	-0.048257	2.034469	-0.012293	0.013911	0.008295	0.396180	-0.542813	-0.317829	-0.668865	-1.354419	-77.951688	-117.626194
59281		9.546533	-0.102410	1.997047	-0.004360	0.014611	0.011052	0.396204	-0.542785	-0.317796	-0.668889	-1.362679	-77.945677	-117.618429
59282		9.543053	-0.052948	2.018324	-0.001562	0.005870	0.010933	0.396235	-0.542771	-0.317805	-0.668878	-1.367459	-77.944527	-117.609765
59283		9.526113	-0.082403	2.028821	-0.001709	0.010071	0.007053	0.396254	-0.542741	-0.317809	-0.668888	-1.362958	-77.941102	-117.611833
59284		9.524650	-0.093752	1.996750	0.000255	0.006945	0.011411	0.396294	-0.542721	-0.317821	-0.668876	-1.367908	-77.939330	-117.601930
59285		9.533556	-0.075231	2.008878	-0.001605	0.004713	0.009031	0.396313	-0.542710	-0.317833	-0.668868	-1.368195	-77.938881	-117.598699
59286		9.534778	-0.065768	2.042003	0.000317	0.000429	0.011487	0.396342	-0.542712	-0.317858	-0.668838	-1.373730	-77.940840	-117.588161
59287		9.513455	-0.055303	2.039167	-0.003020	-0.000262	0.010914	0.396360	-0.542720	-0.317874	-0.668812	-1.379711	-77.943181	-117.579072
59288		9.537973	-0.018815	2.008221	-0.000902	0.002270	0.011777	0.396390	-0.542718	-0.317890	-0.668788	-1.386609	-77.944081	-117.567856
59289		9.513441	-0.057564	2.039167	-0.000842	-0.004246	0.011853	0.396419	-0.542733	-0.317926	-0.668742	-1.393765	-77.948599	-117.554807
59290		9.513505	-0.058810	2.038835	-0.002317	-0.002704	0.013661	0.396444	-0.542753	-0.317942	-0.668703	-1.406861	-77.952321	-117.538082
59291		9.551708	-0.043047	2.031473	-0.001443	-0.007161	0.011085	0.396453	-0.542785	-0.317973	-0.668657	-1.413823	-77.958654	-117.527736
59292		9.515735	-0.022401	1.970712	0.002253	-0.011530	0.012117	0.396471	-0.542824	-0.318027	-0.668590	-1.420764	-77.967452	-117.514628
59293		9.504938	-0.081449	2.024902	0.000246	-0.009560	0.005857	0.396459	-0.542855	-0.318078	-0.668547	-1.413300	-77.975296	-117.518843
59294		9.554905	-0.024565	2.094404	-0.002833	-0.009948	0.003767	0.396437	-0.542885	-0.318134	-0.668509	-1.400600	-77.983306	-117.528797
59295		9.606666	-0.029334	2.111208	-0.024124	0.000920	0.013479	0.396395	-0.542946	-0.318056	-0.668522	-1.427782	-77.985107	-117.513181
59296		9.554230	-0.009823	1.961934	-0.017981	0.009370	0.019488	0.396415	-0.542966	-0.317980	-0.668530	-1.464776	-77.981826	-117.481201
59297		9.507010	-0.048503	1.957416	-0.027878	-0.005727	0.017920	0.396391	-0.543048	-0.317913	-0.668509	-1.504029	-77.987091	-117.450860
59298		9.562763	-0.122708	2.085521	-0.015108	-0.021235	0.015782	0.396359	-0.543159	-0.317917	-0.668436	-1.531589	-78.001388	-117.426843
59299		9.499102	-0.089882	2.075868	-0.017610	-0.003361	0.018123	0.396381	-0.543204	-0.317894	-0.668397	-1.564207	-78.005158	-117.394560
59300		9.484404	-0.081503	2.017999	-0.014909	-0.014418	0.014192	0.396355	-0.543289	-0.317890	-0.668346	-1.586958	-78.015569	-117.375344
59301		9.507364	-0.084192	2.052076	-0.011003	-0.019644	0.011800	0.396304	-0.543393	-0.317897	-0.668288	-1.603571	-78.029196	-117.363657
59302		9.527749	-0.107583	2.019938	-0.010347	-0.023245	0.012643	0.396271	-0.543496	-0.317930	-0.668208	-1.620266	-78.044686	-117.347961
59303		9.608926	-0.115247	2.016375	-0.002456	-0.023714	0.013494	0.396269	-0.543582	-0.317993	-0.668109	-1.634817	-78.060285	-117.328598
59304		9.548248	-0.060745	2.071392	0.003826	-0.026111	0.010444	0.396263	-0.543663	-0.318084	-0.668003	-1.637729	-78.077451	-117.318691
59305		9.564187	-0.043301	2.026587	0.002724	-0.019764	0.005341	0.396232	-0.543727	-0.318159	-0.667934	-1.628492	-78.091181	-117.324619
59306		9.555490	-0.063145	2.013077	0.001160	-0.020534	0.003346	0.396203	-0.543783	-0.318250	-0.667862	-1.613217	-78.105268	-117.334862
59307		9.555898	-0.063424	2.011132	0.006015	-0.020233	0.004008	0.396180	-0.543838	-0.318344	-0.667786	-1.598787	-78.119300	-117.343416
59308		9.525946	-0.071729	1.994613	0.002820	-0.025122	0.007318	0.396162	-0.543913	-0.318439	-0.667691	-1.593678	-78.135951	-117.342297
59309		9.547745	-0.084068	1.994945	-0.000775	-0.026108	0.008269	0.396137	-0.543999	-0.318522	-0.667596	-1.593521	-78.153138	-117.338107
59310		9.537480	-0.043329	2.034201	-0.003555	-0.025035	0.006568	0.396099	-0.544086	-0.318597	-0.667512	-1.590004	-78.169751	-117.339094
59311		9.548763	-0.085509	1.990004	-0.007198	-0.027177	0.005617	0.396042	-0.544186	-0.318664	-0.667432	-1.586671	-78.187607	-117.342495
59312		9.528000	-0.074663	1.984672	-0.010490	-0.026706	0.006953	0.395984	-0.544292	-0.318719	-0.667354	-1.588302	-78.205170	-117.342282
59313		9.578763	-0.089875	1.966503	-0.017729	-0.022162	0.008785	0.395920	-0.544400	-0.318734	-0.667296	-1.599258	-78.220068	-117.336797
59314		9.589785	-0.061115	2.008758	-0.016260	-0.023704	0.006974	0.395851	-0.544508	-0.318764	-0.667235	-1.604043	-78.235912	-117.336739
59315		9.561266	-0.059633	2.025102	-0.014695	-0.022934	0.008969	0.395798	-0.544612	-0.318792	-0.667169	-1.614134	-78.251263	-117.329961
59316		9.607481	-0.034637	1.994809	-0.013019	-0.017659	0.005567	0.395742	-0.544690	-0.318824	-0.667122	-1.612731	-78.263668	-117.334326
59317		9.610817	-0.085751	1.972739	-0.013772	-0.016369	0.000920	0.395674	-0.544758	-0.318864	-0.667088	-1.599465	-78.275399	-117.350934
59318		9.570003	-0.052427	1.998725	-0.014732	-0.014224	-0.000304	0.395600	-0.544819	-0.318900	-0.667065	-1.582540	-78.285929	-117.372153
59319		9.559671	-0.082487	1.952841	-0.011697	-0.014996	-0.000123	0.395531	-0.544879	-0.318943	-0.667036	-1.565415	-78.296931	-117.392391
59320		9.555457	-0.042490	1.939135	-0.007495	-0.011097	-0.000308	0.395482	-0.544916	-0.318996	-0.667010	-1.544027	-78.305668	-117.413933
59321		9.569352	-0.063348	1.961822	-0.010483	-0.016839	-0.000417	0.395416	-0.544976	-0.319052	-0.666973	-1.524667	-78.317687	-117.434936
59322		9.532899	-0.070231	2.000885	-0.027834	-0.001319	-0.000409	0.395327	-0.545020	-0.319018	-0.667006	-1.513874	-78.320823	-117.457557
59323		9.561947	-0.073852	1.981809	-0.032303	-0.007717	0.010499	0.395261	-0.545105	-0.318962	-0.667003	-1.535410	-78.327350	-117.448008
59324		9.508837	-0.082160	1.931257	-0.030687	-0.005795	0.014397	0.395206	-0.545193	-0.318887	-0.666999	-1.567633	-78.332821	-117.428373
59325		9.584992	-0.149696	1.929583	-0.016616	-0.010977	0.008356	0.395157	-0.545264	-0.318882	-0.666972	-1.576607	-78.341421	-117.425011
59326		9.586726	-0.140315	1.961260	-0.001181	-0.014541	0.007728	0.395146	-0.545312	-0.318941	-0.666911	-1.574113	-78.352005	-117.423563
59327		9.551911	-0.137111	2.032654	-0.008922	-0.016068	0.001572	0.395081	-0.545378	-0.318983	-0.666876	-1.560480	-78.363672	-117.440044
59328		9.527860	-0.146693	1.962889	-0.017625	-0.009984	0.005232	0.395024	-0.545440	-0.318986	-0.666858	-1.560107	-78.371685	-117.446051
59329		9.526645	-0.086785	2.015226	-0.020008	-0.012812	0.005893	0.394966	-0.545512	-0.318989	-0.666831	-1.562978	-78.381214	-117.448965
59330		9.583289	-0.103165	1.943665	-0.019049	-0.014957	0.007115	0.394903	-0.545596	-0.318991	-0.666799	-1.569042	-78.392046	-117.449232
59331		9.544060	-0.060523	2.002657	-0.016777	-0.016639	0.011850	0.394858	-0.545691	-0.318988	-0.666750	-1.587838	-78.403784	-117.435770
59332		9.541306	-0.082344	1.935293	-0.012674	-0.015048	0.007855	0.394815	-0.545764	-0.319010	-0.666705	-1.592345	-78.414657	-117.433898
59333		9.543115	-0.073038	1.966837	-0.005992	-0.013685	0.008979	0.394809	-0.545814	-0.319057	-0.666645	-1.596089	-78.424576	-117.426793
59334		9.593601	-0.088031	1.949495	-0.002448	-0.013853	0.006117	0.394791	-0.545859	-0.319115	-0.666591	-1.589787	-78.434791	-117.429973
59335		9.595368	-0.078350	1.981311	-0.001278	-0.009182	0.005755	0.394764	-0.545900	-0.319150	-0.666557	-1.584672	-78.442565	-117.434864
59336		9.615331	-0.100995	1.949891	-0.007562	-0.014449	0.006988	0.394733	-0.545959	-0.319189	-0.666508	-1.583775	-78.453108	-117.435517
59337		9.594269	-0.090220	1.946104	-0.009682	-0.009307	0.007970	0.394711	-0.546007	-0.319209	-0.666472	-1.587364	-78.460688	-117.432609
59338		9.609631	-0.101961	2.002154	-0.014692	-0.007598	0.012651	0.394691	-0.546066	-0.319196	-0.666442	-1.605916	-78.467218	-117.417582
59339		9.582473	-0.061895	1.953557	-0.017729	-0.006823	0.012476	0.394673	-0.546123	-0.319181	-0.666413	-1.624887	-78.473161	-117.402107
59340		9.620688	-0.046523	1.946006	-0.013522	-0.002928	0.012290	0.394662	-0.546164	-0.319164	-0.666394	-1.641417	-78.477019	-117.388462
59341		9.574966	-0.074033	1.974122	-0.010434	-0.002551	0.014370	0.394671	-0.546198	-0.319154	-0.666366	-1.661824	-78.480555	-117.368376
59342		9.567403	-0.055721	1.895859	-0.007543	0.000883	0.010671	0.394677	-0.546212	-0.319153	-0.666351	-1.670086	-78.482256	-117.359672
59343		9.582594	-0.067346	1.952782	-0.004253	0.000410	0.009327	0.394679	-0.546225	-0.319159	-0.666336	-1.674438	-78.484289	-117.354666
59344		9.581033	-0.078474	1.919763	-0.004612	-0.002197	0.007036	0.394677	-0.546238	-0.319184	-0.666315	-1.671057	-78.487815	-117.356130
59345		9.530860	-0.065023	1.935687	-0.004306	-0.000742	0.007422	0.394679	-0.546245	-0.319207	-0.666297	-1.668398	-78.490457	-117.356501
59346		9.550567	-0.087923	1.905309	-0.007850	-0.000572	0.010286	0.394681	-0.546264	-0.319210	-0.666279	-1.675881	-78.492998	-117.348772
59347		9.536960	-0.068109	1.881210	-0.003348	-0.002889	0.008642	0.394675	-0.546287	-0.319224	-0.666257	-1.678518	-78.497012	-117.345628
59348		9.581141	-0.082188	1.919068	-0.002084	-0.003581	0.010248	0.394688	-0.546304	-0.319252	-0.666222	-1.682847	-78.501276	-117.337746
59349		9.558358	-0.081763	1.883122	-0.003909	-0.004648	0.009775	0.394695	-0.546328	-0.319277	-0.666186	-1.688023	-78.506127	-117.329799
59350		9.590537	-0.064891	1.929761	-0.004470	-0.006406	0.010909	0.394699	-0.546360	-0.319300	-0.666146	-1.695826	-78.511999	-117.319767
59351		9.560113	-0.073773	1.915101	-0.008410	-0.002330	0.011421	0.394713	-0.546379	-0.319313	-0.666116	-1.705658	-78.515330	-117.307561
59352		9.583007	-0.076236	1.950426	-0.004613	-0.002196	0.007037	0.394710	-0.546392	-0.319339	-0.666095	-1.702286	-78.518855	-117.309016
59353		9.581412	-0.087288	1.917487	-0.003692	0.002170	0.008196	0.394720	-0.546391	-0.319354	-0.666083	-1.701874	-78.519858	-117.307054
59354		9.611922	-0.080463	1.931651	-0.000313	-0.003666	0.008816	0.394733	-0.546403	-0.319392	-0.666047	-1.701181	-78.524195	-117.303262
59355		9.590663	-0.069616	1.928966	-0.003692	0.002170	0.008196	0.394738	-0.546406	-0.319400	-0.666038	-1.702111	-78.525297	-117.301132
59356		9.611899	-0.082153	1.931695	-0.002481	0.000326	0.007896	0.394747	-0.546408	-0.319425	-0.666019	-1.699731	-78.527364	-117.300329
59357		9.590604	-0.071278	1.929201	-0.003692	0.002170	0.008196	0.394757	-0.546405	-0.319442	-0.666006	-1.698414	-78.528321	-117.299189
59358		9.581308	-0.091446	1.917811	-0.004956	0.002863	0.006590	0.394760	-0.546401	-0.319457	-0.666001	-1.693552	-78.528957	-117.302365
59359		9.590494	-0.072788	1.929692	-0.003438	0.002474	0.006677	0.394754	-0.546404	-0.319465	-0.665998	-1.690066	-78.529934	-117.305794
59360		9.596524	-0.074627	1.875563	-0.000964	-0.000064	0.007983	0.394768	-0.546404	-0.319495	-0.665976	-1.687093	-78.532222	-117.304709
59361		9.590380	-0.074094	1.930208	0.001589	0.008427	0.003838	0.394780	-0.546369	-0.319521	-0.665985	-1.670941	-78.529786	-117.317120
59362		9.613095	-0.076204	1.966405	-0.003079	0.005081	0.008969	0.394799	-0.546358	-0.319532	-0.665978	-1.671535	-78.529111	-117.313631
59363		9.591722	-0.065184	1.964321	-0.002316	0.005992	0.004411	0.394804	-0.546338	-0.319550	-0.665982	-1.660445	-78.528040	-117.322544
59364		9.603598	-0.096842	1.955949	-0.003781	0.007533	0.006231	0.394816	-0.546315	-0.319561	-0.665988	-1.653514	-78.526006	-117.327144
59365		9.582178	-0.085903	1.954092	-0.008589	0.008397	0.007489	0.394826	-0.546300	-0.319553	-0.665999	-1.653884	-78.523422	-117.326383
59366		9.618599	-0.080368	1.914855	-0.007581	0.007400	0.010615	0.394843	-0.546292	-0.319540	-0.666002	-1.661511	-78.521392	-117.318350
59367		9.566659	-0.077147	1.898863	0.001949	0.011033	0.006133	0.394876	-0.546247	-0.319563	-0.666008	-1.651414	-78.517345	-117.322915
59368		9.575734	-0.058530	1.911343	-0.002773	0.006536	0.009357	0.394900	-0.546230	-0.319570	-0.666004	-1.652806	-78.515831	-117.318432
59369		9.581498	-0.089180	1.957280	0.001589	0.008427	0.003841	0.394930	-0.546185	-0.319611	-0.666003	-1.636049	-78.513231	-117.328347
59370		9.619523	-0.072789	1.950952	0.002545	0.006278	0.005061	0.394954	-0.546152	-0.319649	-0.665998	-1.622308	-78.511934	-117.336197
59371		9.590492	-0.070875	1.970120	-0.004906	0.004016	0.008496	0.394966	-0.546147	-0.319657	-0.665992	-1.623129	-78.511843	-117.333505
59372		9.586062	-0.031590	1.958329	-0.007635	0.006251	0.008709	0.394974	-0.546140	-0.319651	-0.665995	-1.625504	-78.510503	-117.330862
59373		9.584370	-0.042886	1.925955	-0.012751	0.005662	0.009579	0.394992	-0.546132	-0.319648	-0.665993	-1.630875	-78.509201	-117.324005
59374		9.555297	-0.041472	1.945315	-0.007275	0.008857	0.011003	0.395013	-0.546120	-0.319631	-0.665999	-1.639295	-78.506331	-117.314983
59375		9.589934	-0.075101	1.972680	-0.002212	0.008294	0.008226	0.395036	-0.546097	-0.319638	-0.666001	-1.638334	-78.503868	-117.312999
59376		9.515251	-0.070484	1.920777	-0.006937	0.003798	0.011448	0.395051	-0.546101	-0.319631	-0.665991	-1.648217	-78.503887	-117.302286
59377		9.566865	-0.075674	1.938280	-0.010108	0.008791	0.007403	0.395046	-0.546094	-0.319608	-0.666011	-1.649944	-78.501227	-117.303156
59378		9.582166	-0.058323	1.896049	-0.009430	-0.001327	0.008292	0.395035	-0.546115	-0.319612	-0.665998	-1.652784	-78.504234	-117.301087
59379		9.576002	-0.058426	1.950457	-0.017869	0.005076	0.010450	0.395024	-0.546132	-0.319573	-0.666009	-1.665729	-78.503452	-117.292717
59380		9.566686	-0.078893	1.939036	-0.013729	0.000149	0.006511	0.394999	-0.546154	-0.319565	-0.666010	-1.665900	-78.505642	-117.295886
59381		9.566654	-0.079964	1.939149	-0.013625	0.002450	0.010325	0.394980	-0.546181	-0.319532	-0.666015	-1.677918	-78.506538	-117.288794
59382		9.583545	-0.052477	1.929815	-0.007996	0.003646	0.006417	0.394975	-0.546180	-0.319537	-0.666017	-1.674253	-78.506728	-117.292525
59383		9.596966	-0.074214	1.954295	-0.008590	0.008401	0.007494	0.394984	-0.546164	-0.319529	-0.666028	-1.673774	-78.504144	-117.292739
59384		9.566353	-0.082868	1.940511	-0.013626	0.002450	0.010326	0.394975	-0.546184	-0.319506	-0.666028	-1.684441	-78.504953	-117.285136
59385		9.595213	-0.086585	1.922176	-0.012806	0.004514	0.007675	0.394957	-0.546196	-0.319483	-0.666040	-1.687853	-78.504681	-117.285549
59386		9.569719	-0.035536	1.907261	0.000627	-0.005823	0.010033	0.394973	-0.546215	-0.319525	-0.665995	-1.690220	-78.510233	-117.278084
59387		9.552795	-0.064584	1.916623	0.001570	0.000759	0.001995	0.394984	-0.546193	-0.319585	-0.665978	-1.669164	-78.512052	-117.292566
59388		9.550971	-0.103881	1.982863	-0.009130	-0.005318	-0.002377	0.394932	-0.546210	-0.319627	-0.665974	-1.642089	-78.517520	-117.320848
59389		9.613592	-0.079143	2.044165	-0.028263	0.000457	0.006471	0.394862	-0.546264	-0.319563	-0.666002	-1.652072	-78.519575	-117.323675
59390		9.638456	-0.013908	1.914382	-0.028393	0.010116	0.013663	0.394836	-0.546293	-0.319467	-0.666040	-1.679989	-78.515938	-117.307104
59391		9.590771	-0.051858	1.910674	-0.015582	0.011045	0.017045	0.394852	-0.546303	-0.319395	-0.666056	-1.711334	-78.511739	-117.280709
59392		9.581297	-0.072793	1.899934	-0.020037	0.009076	0.009541	0.394834	-0.546313	-0.319340	-0.666086	-1.722911	-78.508765	-117.275925
59393		9.537931	-0.150398	1.907914	-0.020009	0.002563	0.009592	0.394805	-0.546345	-0.319296	-0.666098	-1.736080	-78.509504	-117.269679
59394		9.510446	-0.139272	1.959969	-0.024408	0.007185	0.015057	0.394790	-0.546378	-0.319215	-0.666118	-1.765855	-78.507516	-117.248882
59395		9.512273	-0.101975	1.893895	-0.020033	0.000339	0.018795	0.394793	-0.546430	-0.319155	-0.666103	-1.804311	-78.509316	-117.215966
59396		9.562474	-0.118104	1.877535	-0.011134	-0.006607	0.011681	0.394780	-0.546477	-0.319155	-0.666072	-1.818194	-78.515284	-117.203625
59397		9.617463	-0.103199	1.959718	-0.002775	-0.007650	0.007557	0.394785	-0.546500	-0.319204	-0.666027	-1.815368	-78.521847	-117.201743
59398		9.617585	-0.103931	1.959082	-0.003728	-0.005498	0.006341	0.394777	-0.546520	-0.319240	-0.665997	-1.809858	-78.527276	-117.204861
59399		9.598055	-0.082619	1.988867	-0.003780	-0.006647	0.004432	0.394763	-0.546541	-0.319285	-0.665967	-1.799494	-78.533345	-117.212759
59400		9.584631	-0.062006	1.964598	0.004040	-0.001788	0.003298	0.394772	-0.546530	-0.319348	-0.665941	-1.780600	-78.536704	-117.224991
59401		9.592394	-0.052808	1.943089	0.002674	-0.003387	-0.002125	0.394763	-0.546514	-0.319429	-0.665920	-1.747565	-78.540965	-117.251405
59402		9.592412	-0.052534	1.943008	0.002340	0.001673	-0.002563	0.394754	-0.546485	-0.319496	-0.665917	-1.712766	-78.542440	-117.280859
59403		9.584710	-0.061776	1.964221	0.000439	-0.002763	0.004255	0.394752	-0.546487	-0.319544	-0.665894	-1.699094	-78.546379	-117.290458
59404		9.581594	-0.082239	1.898052	0.005815	-0.001875	0.001865	0.394761	-0.546469	-0.319618	-0.665868	-1.675096	-78.549807	-117.306859
59405		9.590906	-0.063080	1.909656	0.010730	-0.000449	0.004423	0.394788	-0.546446	-0.319691	-0.665835	-1.656716	-78.552442	-117.315877
59406		9.573919	-0.091609	1.919121	0.012451	-0.001684	0.001082	0.394813	-0.546414	-0.319788	-0.665800	-1.626662	-78.555771	-117.334578
59407		9.602862	-0.094114	1.900396	0.011243	0.000163	0.001385	0.394835	-0.546381	-0.319874	-0.665773	-1.598248	-78.558063	-117.352912
59408		9.596704	-0.093145	1.954769	0.002136	0.002516	0.000865	0.394838	-0.546354	-0.319930	-0.665767	-1.573138	-78.558987	-117.372598
59409		9.613647	-0.064718	1.945517	0.002445	0.003970	0.001254	0.394848	-0.546320	-0.319986	-0.665761	-1.548156	-78.558993	-117.391239
59410		9.601592	-0.033958	1.955254	-0.009592	0.009406	0.004378	0.394842	-0.546300	-0.319979	-0.665785	-1.539179	-78.555913	-117.401321
59411		9.569342	-0.052248	1.908765	-0.008640	0.007255	0.005595	0.394836	-0.546289	-0.319973	-0.665801	-1.533868	-78.554051	-117.407678
59412		9.509707	-0.057906	1.914038	-0.010748	0.012402	0.006590	0.394838	-0.546264	-0.319950	-0.665831	-1.531591	-78.549221	-117.411600
59413		9.532251	-0.060393	1.950791	-0.004369	0.012286	0.007327	0.394849	-0.546236	-0.319936	-0.665854	-1.529135	-78.544578	-117.413997
59414		9.551680	-0.082902	1.921471	-0.002955	0.009597	0.003596	0.394858	-0.546200	-0.319953	-0.665869	-1.514152	-78.541400	-117.426329
59415		9.577324	-0.106202	1.837688	-0.002004	0.007445	0.004813	0.394866	-0.546176	-0.319968	-0.665878	-1.503437	-78.539470	-117.434797
59416		9.607797	-0.058086	2.038722	-0.019190	0.004638	0.006943	0.394834	-0.546194	-0.319932	-0.665899	-1.507586	-78.539082	-117.437097
59417		9.575461	-0.076990	1.992655	-0.031586	0.021651	0.009583	0.394808	-0.546182	-0.319817	-0.665980	-1.524425	-78.528803	-117.433043
59418		9.577029	-0.039375	1.928344	-0.030533	0.021796	0.014620	0.394798	-0.546178	-0.319688	-0.666051	-1.555432	-78.518469	-117.414569
59419		9.541535	-0.079004	1.816719	-0.011679	0.013475	0.016491	0.394832	-0.546169	-0.319631	-0.666066	-1.582394	-78.512898	-117.389399
59420		9.575530	-0.142549	1.943385	0.004553	0.004254	0.011329	0.394879	-0.546149	-0.319662	-0.666039	-1.585335	-78.512661	-117.379051
59421		9.532522	-0.149080	2.037933	0.005069	0.004866	0.008291	0.394906	-0.546129	-0.319689	-0.666026	-1.581420	-78.512245	-117.377822
59422		9.486871	-0.146350	1.967403	-0.011369	0.009497	0.005813	0.394899	-0.546115	-0.319672	-0.666050	-1.577532	-78.509092	-117.383752
59423		9.532709	-0.121350	1.940029	-0.020144	0.006796	0.005725	0.394854	-0.546133	-0.319621	-0.666087	-1.580442	-78.507597	-117.389938
59424		9.520741	-0.091516	1.949414	-0.027536	-0.000823	0.011106	0.394804	-0.546193	-0.319556	-0.666098	-1.601535	-78.510270	-117.379828
59425		9.568279	-0.057016	1.954320	-0.016985	0.001790	0.009764	0.394771	-0.546229	-0.319513	-0.666109	-1.614012	-78.511545	-117.374545
59426		9.537738	-0.065783	1.940112	-0.012381	0.001757	0.011936	0.394770	-0.546251	-0.319491	-0.666102	-1.628564	-78.512726	-117.362249
59427		9.520648	-0.095512	1.949675	-0.004534	0.000095	0.010852	0.394785	-0.546262	-0.319503	-0.666079	-1.635588	-78.514844	-117.352923
59428		9.534056	-0.117635	1.973597	-0.008829	0.001583	0.009072	0.394783	-0.546273	-0.319501	-0.666072	-1.640051	-78.516171	-117.348847
59429		9.564510	-0.111343	1.988130	-0.012123	0.002065	0.010417	0.394779	-0.546292	-0.319483	-0.666067	-1.650946	-78.517216	-117.340154
59430		9.545351	-0.061377	1.919451	-0.018453	0.003334	0.011589	0.394762	-0.546321	-0.319438	-0.666074	-1.667882	-78.517499	-117.328976
59431		9.528241	-0.091336	1.929032	-0.016296	-0.000668	0.012500	0.394742	-0.546364	-0.319401	-0.666069	-1.687098	-78.520105	-117.315371
59432		9.522528	-0.062459	1.884175	-0.013022	0.005366	0.011115	0.394742	-0.546375	-0.319372	-0.666074	-1.699419	-78.519230	-117.305727
59433		9.484206	-0.080621	1.891224	-0.011951	-0.001010	0.016191	0.394741	-0.546419	-0.319336	-0.666056	-1.727233	-78.522013	-117.281587
59434		9.481740	-0.031701	1.911707	-0.008173	-0.008539	0.009934	0.394728	-0.546465	-0.319354	-0.666017	-1.734631	-78.529122	-117.274132
59435		9.522693	-0.066564	1.883200	-0.010899	-0.006297	0.010153	0.394705	-0.546513	-0.319350	-0.665993	-1.745309	-78.534987	-117.266301
59436		9.493864	-0.065102	1.901171	-0.012727	-0.007356	0.009675	0.394681	-0.546563	-0.319351	-0.665966	-1.754502	-78.541421	-117.259677
59437		9.532296	-0.049612	1.893506	-0.010002	-0.009598	0.009456	0.394658	-0.546617	-0.319363	-0.665930	-1.762690	-78.549139	-117.253023
59438		9.584165	-0.055005	1.909575	-0.003104	-0.009109	0.007155	0.394648	-0.546650	-0.319407	-0.665887	-1.759411	-78.556622	-117.253499
59439		9.576600	-0.064921	1.929784	0.002656	-0.012142	0.007109	0.394642	-0.546687	-0.319468	-0.665831	-1.753729	-78.565926	-117.254512
59440		9.660604	-0.052523	1.993031	-0.001380	-0.010343	0.003811	0.394624	-0.546715	-0.319529	-0.665789	-1.740088	-78.574173	-117.264553
59441		9.666939	-0.053713	1.938045	-0.008089	-0.005155	0.002646	0.394589	-0.546740	-0.319557	-0.665776	-1.727407	-78.579526	-117.278282
59442		9.630278	-0.060957	1.977703	-0.010398	0.000833	0.007081	0.394575	-0.546754	-0.319557	-0.665773	-1.727224	-78.581315	-117.279864
59443		9.637976	-0.052515	1.956757	-0.012296	0.005144	0.004654	0.394557	-0.546753	-0.319549	-0.665789	-1.721279	-78.580664	-117.288301
59444		9.616641	-0.041390	1.954924	-0.009534	0.010562	0.006310	0.394558	-0.546732	-0.319534	-0.665812	-1.717585	-78.576895	-117.292959
59445		9.563141	-0.047527	1.906082	-0.003842	0.012897	0.004314	0.394567	-0.546692	-0.319534	-0.665840	-1.705017	-78.571845	-117.304433
59446		9.547366	-0.066392	1.949704	-0.003895	0.011752	0.002402	0.394573	-0.546649	-0.319547	-0.665865	-1.686937	-78.567461	-117.320472
59447		9.551175	-0.107141	1.962969	-0.003532	0.014351	0.004707	0.394593	-0.546601	-0.319549	-0.665892	-1.675795	-78.561515	-117.329198
59448		9.537551	-0.086581	1.940216	-0.009899	0.007964	0.004005	0.394582	-0.546586	-0.319545	-0.665913	-1.666026	-78.559272	-117.340268
59449		9.552871	-0.068778	1.898915	-0.011381	0.016020	0.005796	0.394575	-0.546557	-0.319504	-0.665961	-1.663543	-78.552543	-117.346898
59450		9.575362	-0.071330	1.935695	-0.006553	0.008626	0.004571	0.394576	-0.546534	-0.319508	-0.665977	-1.653414	-78.549911	-117.356379
59451		9.588547	-0.093139	1.960488	-0.009226	0.012016	0.006703	0.394580	-0.546509	-0.319488	-0.666005	-1.650793	-78.545322	-117.360222
59452		9.567093	-0.081961	1.959236	-0.004740	0.016199	0.005017	0.394599	-0.546457	-0.319483	-0.666038	-1.640282	-78.538344	-117.369034
59453		9.610647	-0.096389	1.999037	-0.003171	0.016949	0.007016	0.394621	-0.546410	-0.319464	-0.666073	-1.636065	-78.530972	-117.372434
59454		9.573510	-0.103765	2.040617	-0.002550	0.019856	0.007803	0.394662	-0.546346	-0.319451	-0.666107	-1.631886	-78.521855	-117.373506
59455		9.556655	-0.103429	1.952718	-0.007104	0.021043	0.007543	0.394667	-0.546304	-0.319397	-0.666165	-1.632573	-78.512338	-117.376861
59456		9.536575	-0.082354	1.985227	-0.001670	0.023070	0.007072	0.394713	-0.546226	-0.319382	-0.666208	-1.625581	-78.501392	-117.380289
59457		9.534575	-0.093224	1.954483	-0.004916	0.024699	0.010330	0.394770	-0.546150	-0.319351	-0.666252	-1.628664	-78.489345	-117.374007
59458		9.534122	-0.094081	1.956651	0.001054	0.020826	0.006855	0.394819	-0.546075	-0.319350	-0.666285	-1.619689	-78.479688	-117.377865
59459		9.541531	-0.085471	1.937438	0.001053	0.020826	0.006855	0.394860	-0.546005	-0.319340	-0.666322	-1.612305	-78.470120	-117.381760
59460		9.571619	-0.078832	1.953828	0.003828	0.019727	0.008550	0.394920	-0.545931	-0.319346	-0.666345	-1.606605	-78.461065	-117.380655
59461		9.592365	-0.091418	1.958458	0.002881	0.021884	0.007338	0.394974	-0.545851	-0.319345	-0.666379	-1.598173	-78.450794	-117.383561
59462		9.599749	-0.082692	1.939464	0.003712	0.023953	0.004694	0.395028	-0.545756	-0.319353	-0.666421	-1.581422	-78.439380	-117.393803
59463		9.610039	-0.053864	1.986823	0.000041	0.028355	0.003700	0.395076	-0.545654	-0.319340	-0.666482	-1.565039	-78.425487	-117.405926
59464		9.556372	-0.059523	1.939403	0.006682	0.028532	0.002929	0.395139	-0.545535	-0.319354	-0.666535	-1.541365	-78.411476	-117.421498
59465		9.557344	-0.049522	1.974835	0.010254	0.021839	0.000100	0.395184	-0.545433	-0.319392	-0.666574	-1.509606	-78.401463	-117.444880
59466		9.547537	-0.068781	1.965382	0.007936	0.027829	0.004537	0.395255	-0.545317	-0.319406	-0.666620	-1.489848	-78.387828	-117.455723
59467		9.533723	-0.047981	1.944082	0.008880	0.025673	0.005752	0.395327	-0.545209	-0.319423	-0.666657	-1.473322	-78.375445	-117.463036
59468		9.513536	-0.026439	1.976735	0.008259	0.022767	0.004965	0.395393	-0.545110	-0.319448	-0.666688	-1.454992	-78.364702	-117.472232
59469		9.571124	-0.032115	1.941988	0.007051	0.024617	0.005270	0.395460	-0.545008	-0.319463	-0.666724	-1.438757	-78.352905	-117.479962
59470		9.507285	-0.086608	1.981262	0.012190	0.018672	0.004447	0.395527	-0.544913	-0.319511	-0.666739	-1.417070	-78.344514	-117.490288
59471		9.536058	-0.089468	1.964022	0.017392	0.007357	0.005569	0.395570	-0.544865	-0.319570	-0.666724	-1.399408	-78.342900	-117.498185
59472		9.553156	-0.060657	1.955150	0.027143	0.002461	-0.004186	0.395624	-0.544782	-0.319723	-0.666688	-1.346308	-78.343911	-117.531838
59473		9.575644	-0.061665	1.991259	0.021382	0.005500	-0.004151	0.395658	-0.544706	-0.319840	-0.666673	-1.297949	-78.343259	-117.565742
59474		9.574706	-0.019971	2.178087	0.000989	0.006597	-0.008022	0.395635	-0.544654	-0.319908	-0.666697	-1.248925	-78.341937	-117.610534
59475		9.678110	-0.050476	1.895600	-0.018425	0.026291	0.004161	0.395628	-0.544596	-0.319835	-0.666783	-1.244369	-78.329162	-117.621830
59476		9.608843	0.014428	1.844814	-0.016706	0.023965	0.011936	0.395650	-0.544553	-0.319755	-0.666843	-1.259826	-78.317639	-117.611134
59477		9.547848	-0.021221	1.949735	-0.014849	0.011989	0.012487	0.395650	-0.544555	-0.319692	-0.666871	-1.278537	-78.313087	-117.598080
59478		9.499972	-0.058095	1.945612	-0.004691	0.010839	0.006955	0.395668	-0.544524	-0.319692	-0.666886	-1.274093	-78.309145	-117.600676
59479		9.512944	-0.079915	1.970750	0.002881	0.015373	0.007375	0.395712	-0.544466	-0.319704	-0.666902	-1.266717	-78.302606	-117.602340
59480		9.558987	-0.054583	1.944020	-0.003313	0.007003	0.001306	0.395709	-0.544436	-0.319731	-0.666916	-1.246097	-78.300932	-117.620648
59481		9.483621	-0.077692	1.990480	0.004243	-0.002643	-0.000123	0.395700	-0.544425	-0.319800	-0.666897	-1.218500	-78.304782	-117.642717
59482		9.503446	-0.099723	1.959839	0.001624	-0.004621	0.003948	0.395700	-0.544428	-0.319859	-0.666865	-1.203044	-78.309732	-117.652864
59483		9.560507	-0.044724	1.976387	0.013301	-0.006169	-0.001492	0.395694	-0.544416	-0.319958	-0.666832	-1.167922	-78.315778	-117.679627
59484		9.594990	-0.077344	2.002472	0.015128	-0.005112	-0.001007	0.395713	-0.544387	-0.320077	-0.666787	-1.130991	-78.321064	-117.703801
59485		9.634818	-0.050265	2.028475	0.015964	-0.003045	-0.003650	0.395724	-0.544348	-0.320196	-0.666755	-1.087060	-78.325209	-117.735710
59486		9.591170	-0.035961	1.989903	0.006906	0.000481	-0.002281	0.395726	-0.544314	-0.320279	-0.666742	-1.050968	-78.327298	-117.763838
59487		9.573924	-0.064171	1.999437	0.000883	0.003214	-0.000731	0.395734	-0.544278	-0.320345	-0.666735	-1.022137	-78.327709	-117.785676
59488		9.556733	-0.002675	1.963590	0.001517	-0.000396	0.000091	0.395728	-0.544261	-0.320406	-0.666723	-0.995734	-78.330270	-117.807061
59489		9.526310	-0.010133	1.948941	-0.002354	-0.001670	0.002553	0.395724	-0.544257	-0.320455	-0.666705	-0.978612	-78.333503	-117.820167
59490		9.502680	-0.037956	2.012018	-0.000559	-0.008277	0.001158	0.395703	-0.544273	-0.320522	-0.666673	-0.956707	-78.340566	-117.838173
59491		9.526552	-0.010256	1.947760	-0.002803	-0.006564	-0.003579	0.395665	-0.544278	-0.320592	-0.666657	-0.923012	-78.346674	-117.869157
59492		9.553176	-0.052339	1.994824	-0.008502	-0.008895	-0.001601	0.395612	-0.544307	-0.320641	-0.666641	-0.897964	-78.354112	-117.895019
59493		9.591686	-0.035850	1.987417	-0.009709	-0.007045	-0.001297	0.395533	-0.544350	-0.320656	-0.666645	-0.877301	-78.360787	-117.922128
59494		9.667079	-0.013024	1.940661	-0.016940	-0.002463	0.000558	0.395474	-0.544378	-0.320659	-0.666656	-0.862770	-78.364518	-117.942188
59495		9.630149	-0.020054	1.980219	-0.018101	0.000534	0.002775	0.395410	-0.544413	-0.320629	-0.666681	-0.857577	-78.366729	-117.956473
59496		9.637960	-0.011399	1.959486	-0.017543	0.008811	0.001619	0.395371	-0.544406	-0.320604	-0.666721	-0.845868	-78.363990	-117.974004
59497		9.565056	0.004284	1.940379	-0.018287	0.009036	0.008089	0.395342	-0.544416	-0.320548	-0.666756	-0.853888	-78.361181	-117.973779
59498		9.552974	-0.055194	1.995717	-0.016707	0.010880	-0.001022	0.395301	-0.544396	-0.320529	-0.666806	-0.834280	-78.357279	-117.998886
59499		9.555330	-0.015943	1.930614	-0.019696	0.012820	0.000711	0.395260	-0.544380	-0.320490	-0.666862	-0.822495	-78.352323	-118.017955
59500		9.536505	-0.054787	1.908003	-0.021834	0.010310	-0.000168	0.395206	-0.544374	-0.320453	-0.666918	-0.808250	-78.348738	-118.040586
59501		9.547045	-0.026022	1.953604	-0.019993	0.004850	0.000346	0.395147	-0.544385	-0.320428	-0.666956	-0.795046	-78.348281	-118.061706
59502		9.565448	0.011839	1.978282	-0.040048	0.015072	-0.001248	0.395048	-0.544397	-0.320323	-0.667055	-0.788073	-78.341975	-118.087568
59503		9.526752	-0.005858	1.986503	-0.051375	0.019217	0.006508	0.394948	-0.544433	-0.320147	-0.667169	-0.810642	-78.333324	-118.090622
59504		9.629555	-0.017104	2.022716	-0.048455	0.015032	0.013977	0.394877	-0.544486	-0.319973	-0.667252	-0.850732	-78.326918	-118.073349
59505		9.713801	-0.066881	2.034901	-0.035476	0.013927	0.012059	0.394832	-0.544515	-0.319849	-0.667315	-0.878627	-78.321178	-118.061139
59506		9.652607	-0.083020	2.007212	-0.016438	0.017750	0.010479	0.394840	-0.544490	-0.319786	-0.667360	-0.890515	-78.313242	-118.053930
59507		9.546395	-0.114560	2.040593	-0.026007	0.021768	0.003777	0.394814	-0.544456	-0.319706	-0.667441	-0.889349	-78.303004	-118.064437
59508		9.556540	-0.066289	1.955654	-0.026068	0.027144	0.001844	0.394782	-0.544405	-0.319616	-0.667545	-0.882459	-78.289763	-118.082040
59509		9.562599	-0.087684	2.036155	-0.031508	0.025122	0.002298	0.394732	-0.544374	-0.319507	-0.667651	-0.881427	-78.277742	-118.097436
59510		9.638855	-0.055549	2.025463	-0.036949	0.023101	0.002753	0.394667	-0.544360	-0.319386	-0.667760	-0.883492	-78.266809	-118.112261
59511		9.581592	-0.021617	1.965566	-0.039854	0.027325	0.008323	0.394623	-0.544344	-0.319234	-0.667872	-0.902318	-78.253349	-118.111223
59512		9.410551	-0.027929	1.958036	-0.036984	0.021986	0.013871	0.394593	-0.544350	-0.319085	-0.667955	-0.935067	-78.242955	-118.094729
59513		9.559486	-0.033399	2.098985	-0.027419	0.011419	0.007559	0.394539	-0.544372	-0.318992	-0.668013	-0.947341	-78.238808	-118.096062
59514		9.702017	-0.067197	1.942404	-0.024499	0.021377	0.003883	0.394509	-0.544341	-0.318913	-0.668094	-0.945451	-78.228855	-118.107643
59515		9.656508	-0.084312	2.005173	-0.030796	0.023801	0.006958	0.394478	-0.544319	-0.318799	-0.668185	-0.956885	-78.217519	-118.109287
59516		9.525385	-0.043407	1.892080	-0.036562	0.026847	0.006998	0.394434	-0.544298	-0.318660	-0.668294	-0.970214	-78.204403	-118.112383
59517		9.516889	-0.054189	1.915665	-0.040178	0.025881	0.007938	0.394377	-0.544291	-0.318504	-0.668408	-0.988656	-78.191853	-118.113368
59518		9.495255	-0.043768	1.915476	-0.035006	0.027591	0.009012	0.394346	-0.544267	-0.318363	-0.668513	-1.006543	-78.178292	-118.110896
59519		9.498584	-0.015919	2.017128	-0.028035	0.022696	0.008666	0.394328	-0.544244	-0.318259	-0.668592	-1.020049	-78.167486	-118.108197
59520		9.520605	-0.019407	2.054625	-0.031721	0.012931	0.005771	0.394272	-0.544258	-0.318168	-0.668658	-1.027876	-78.162355	-118.114080
59521		9.538926	-0.052023	1.992360	-0.025338	0.012789	0.006536	0.394221	-0.544268	-0.318084	-0.668719	-1.035044	-78.157396	-118.119278
59522		9.558504	-0.074947	1.963252	-0.026816	0.014327	0.008365	0.394189	-0.544271	-0.317999	-0.668776	-1.047074	-78.151439	-118.117996
59523		9.516019	-0.052172	1.959066	-0.026901	0.012050	0.004529	0.394132	-0.544282	-0.317920	-0.668838	-1.049849	-78.146895	-118.127787
59524		9.517074	-0.043594	1.993104	-0.026805	0.007809	0.008368	0.394089	-0.544307	-0.317848	-0.668877	-1.062201	-78.144672	-118.126169
59525		9.539305	-0.047061	2.029513	-0.025639	0.004820	0.006139	0.394010	-0.544353	-0.317765	-0.668925	-1.070850	-78.144448	-118.132722
59526		9.627410	-0.066888	2.140024	-0.022912	0.002570	0.005918	0.393961	-0.544385	-0.317723	-0.668948	-1.074551	-78.145253	-118.137664
59527		9.735000	-0.076489	1.923163	-0.020519	0.011907	0.005299	0.393916	-0.544389	-0.317656	-0.669003	-1.076661	-78.140911	-118.145866
59528		9.690716	-0.083895	2.018321	-0.018127	0.021245	0.004680	0.393906	-0.544347	-0.317597	-0.669072	-1.073294	-78.131031	-118.155230
59529		9.573001	-0.063478	1.928542	-0.018355	0.022069	0.008118	0.393895	-0.544316	-0.317511	-0.669144	-1.081463	-78.120794	-118.155573
59530		9.506241	-0.068866	1.988310	-0.015318	0.021271	0.008300	0.393904	-0.544274	-0.317451	-0.669201	-1.086349	-78.110861	-118.154860
59531		9.551071	-0.053673	1.929860	-0.010762	0.020072	0.008573	0.393914	-0.544235	-0.317396	-0.669254	-1.091233	-78.101705	-118.153756
59532		9.543855	-0.054438	1.985882	-0.012591	0.019021	0.008080	0.393926	-0.544194	-0.317349	-0.669302	-1.094066	-78.093062	-118.153544
59533		9.542283	-0.065160	1.954444	-0.010132	0.016456	0.009375	0.393923	-0.544173	-0.317291	-0.669347	-1.101713	-78.086119	-118.151268
59534		9.531397	-0.025643	1.998233	-0.014947	0.010822	0.010614	0.393925	-0.544169	-0.317246	-0.669371	-1.113194	-78.082145	-118.143595
59535		9.474081	-0.012150	2.068935	-0.015257	0.009371	0.010210	0.393919	-0.544173	-0.317199	-0.669394	-1.125590	-78.079110	-118.136069
59536		9.501925	-0.025765	2.017990	-0.011227	0.001022	0.013510	0.393925	-0.544198	-0.317178	-0.669380	-1.143316	-78.080716	-118.119837
59537		9.542805	-0.060752	1.990738	-0.010700	0.008171	0.010484	0.393939	-0.544191	-0.317158	-0.669387	-1.152140	-78.078192	-118.111446
59538		9.597264	-0.026553	1.943044	-0.005244	0.003668	0.010040	0.393954	-0.544190	-0.317161	-0.669377	-1.156879	-78.078322	-118.104983
59539		9.573001	-0.055955	2.006324	-0.012519	0.000601	0.009981	0.393936	-0.544219	-0.317138	-0.669375	-1.166878	-78.080278	-118.098972
59540		9.519068	-0.071547	1.922767	-0.011590	0.004955	0.011194	0.393940	-0.544228	-0.317115	-0.669377	-1.178315	-78.079657	-118.089379
59541		9.424147	-0.053498	1.867015	-0.010381	0.003103	0.010881	0.393937	-0.544244	-0.317094	-0.669375	-1.189136	-78.080151	-118.080729
59542		9.422171	-0.015898	2.053393	-0.003707	-0.009773	0.010113	0.393935	-0.544285	-0.317129	-0.669326	-1.193955	-78.087978	-118.073284
59543		9.608483	-0.084547	2.064945	-0.002449	-0.017008	0.011711	0.393915	-0.544361	-0.317163	-0.669261	-1.204283	-78.100075	-118.062428
59544		9.755700	-0.088846	2.005494	-0.003756	-0.004389	0.008202	0.393915	-0.544381	-0.317193	-0.669230	-1.203648	-78.104841	-118.060587
59545		9.631762	-0.067970	1.967359	-0.007023	-0.002766	0.011459	0.393910	-0.544415	-0.317188	-0.669208	-1.215391	-78.108771	-118.049979
59546		9.553563	-0.042516	2.034492	-0.011857	0.004642	0.012715	0.393917	-0.544428	-0.317160	-0.669206	-1.231157	-78.108309	-118.036119
59547		9.577732	-0.015632	1.971689	-0.009441	0.000938	0.012087	0.393908	-0.544459	-0.317133	-0.669199	-1.247004	-78.110158	-118.023865
59548		9.560300	-0.045407	1.980835	-0.008551	0.004155	0.011380	0.393919	-0.544465	-0.317120	-0.669193	-1.257275	-78.109990	-118.013686
59549		9.590589	-0.039567	1.996072	-0.008281	0.004470	0.009863	0.393926	-0.544468	-0.317112	-0.669191	-1.263670	-78.109679	-118.007474
59550		9.519182	-0.014225	2.009415	-0.013377	0.005045	0.012626	0.393929	-0.544483	-0.317078	-0.669193	-1.280042	-78.108985	-117.993886
59551		9.530879	-0.046716	2.000319	-0.012480	0.001742	0.011907	0.393915	-0.544514	-0.317044	-0.669193	-1.295404	-78.110287	-117.983196
59552		9.485065	-0.052339	1.895469	0.008614	-0.001904	0.005498	0.393944	-0.544497	-0.317117	-0.669155	-1.280209	-78.113664	-117.988991
59553		9.481534	-0.011938	1.883122	0.020687	-0.013908	0.002367	0.393980	-0.544490	-0.317265	-0.669069	-1.250725	-78.123898	-118.001750
59554		9.516345	-0.056748	2.073581	0.003940	-0.010626	-0.000549	0.393961	-0.544502	-0.317356	-0.669027	-1.222221	-78.132345	-118.023882
59555		9.668417	-0.091122	2.059123	-0.017592	-0.005319	-0.000297	0.393880	-0.544550	-0.317348	-0.669039	-1.209282	-78.137974	-118.045548
59556		9.644354	-0.018783	1.912813	-0.029954	0.006353	0.017390	0.393857	-0.544601	-0.317244	-0.669061	-1.248103	-78.136474	-118.018727
59557		9.534447	-0.011042	1.932627	-0.025275	0.008555	0.023427	0.393860	-0.544651	-0.317125	-0.669075	-1.301934	-78.133729	-117.975618
59558		9.502693	-0.029960	1.885305	-0.018744	0.005307	0.016911	0.393864	-0.544682	-0.317061	-0.669078	-1.333073	-78.132826	-117.950083
59559		9.446760	-0.076669	1.900559	-0.023068	-0.000826	0.013188	0.393845	-0.544731	-0.317014	-0.669072	-1.356827	-78.135390	-117.932814
59560		9.476421	-0.092553	2.047284	-0.024629	-0.001558	0.011177	0.393802	-0.544787	-0.316959	-0.669077	-1.376152	-78.138493	-117.922797
59561		9.566427	-0.083100	2.058203	-0.022048	-0.007244	0.018221	0.393779	-0.544871	-0.316902	-0.669049	-1.414550	-78.144788	-117.892415
59562		9.648403	-0.083446	2.089849	-0.022049	-0.007243	0.018222	0.393758	-0.544953	-0.316848	-0.669020	-1.452041	-78.151044	-117.862326
59563		9.639195	-0.104249	2.077032	-0.012792	-0.006227	0.011492	0.393739	-0.545004	-0.316840	-0.668995	-1.465814	-78.156762	-117.851544
59564		9.612031	-0.072240	1.996384	-0.010610	0.003925	0.014334	0.393754	-0.545019	-0.316813	-0.668986	-1.485390	-78.156674	-117.833064
59565		9.616776	-0.104580	2.041599	-0.001269	0.007209	0.011449	0.393774	-0.545012	-0.316803	-0.668985	-1.493376	-78.154919	-117.824007
59566		9.569634	-0.050530	1.992326	-0.000687	0.008975	0.010338	0.393810	-0.544984	-0.316811	-0.668982	-1.495992	-78.151997	-117.817047
59567		9.524900	-0.046708	1.921308	-0.013378	0.005048	0.012638	0.393799	-0.545009	-0.316763	-0.668991	-1.514019	-78.151471	-117.804516
59568		9.418169	-0.066268	1.787326	-0.015605	0.006803	0.007908	0.393784	-0.545014	-0.316731	-0.669010	-1.518698	-78.149829	-117.804182
59569		9.418812	-0.010411	2.040204	-0.008430	-0.012003	0.017104	0.393780	-0.545091	-0.316725	-0.668953	-1.548196	-78.158990	-117.776165
59570		9.618839	-0.011099	2.030853	-0.003688	-0.021685	0.011990	0.393766	-0.545175	-0.316778	-0.668868	-1.559314	-78.173601	-117.762275
59571		9.694709	-0.058044	1.895934	0.004762	-0.008580	0.009848	0.393772	-0.545206	-0.316824	-0.668818	-1.560814	-78.180865	-117.756313
59572		9.671766	-0.077708	1.991603	-0.001353	-0.001580	0.007586	0.393781	-0.545211	-0.316857	-0.668792	-1.557066	-78.184030	-117.756244
59573		9.553924	-0.077685	2.031756	0.000563	0.001734	0.011929	0.393819	-0.545207	-0.316880	-0.668762	-1.564491	-78.185175	-117.743182
59574		9.571262	-0.050300	2.023463	0.002667	0.009616	0.010926	0.393868	-0.545172	-0.316896	-0.668755	-1.566749	-78.181875	-117.734625
59575		9.600219	-0.054081	2.006000	-0.001224	0.008342	0.013376	0.393914	-0.545152	-0.316896	-0.668744	-1.578306	-78.179204	-117.718550
59576		9.585765	-0.043650	1.950407	-0.004446	0.017622	0.018581	0.393982	-0.545116	-0.316851	-0.668754	-1.604958	-78.171196	-117.689233
59577		9.558580	-0.093092	1.948691	-0.008339	0.016349	0.021031	0.394047	-0.545098	-0.316788	-0.668761	-1.641940	-78.163965	-117.651668
59578		9.547845	-0.054710	1.992795	-0.007405	0.014179	0.022232	0.394113	-0.545085	-0.316730	-0.668759	-1.680454	-78.157861	-117.611962
59579		9.555629	-0.047600	1.973368	-0.012854	0.018698	0.022688	0.394177	-0.545068	-0.316646	-0.668775	-1.723409	-78.149169	-117.570318
59580		9.579813	-0.102685	1.989269	-0.019556	0.017417	0.021516	0.394213	-0.545068	-0.316544	-0.668803	-1.766567	-78.141211	-117.532978
59581		9.573453	-0.083590	1.913103	-0.014689	0.017653	0.022194	0.394255	-0.545064	-0.316445	-0.668828	-1.809759	-78.133184	-117.494707
59582		9.566230	-0.085804	1.968735	-0.008970	0.013450	0.020223	0.394309	-0.545054	-0.316389	-0.668831	-1.843573	-78.127511	-117.460716
59583		9.519363	-0.044848	2.085567	-0.016788	0.022814	0.023239	0.394359	-0.545038	-0.316272	-0.668870	-1.890165	-78.116464	-117.419837
59584		9.522373	-0.088107	2.099125	-0.019166	0.021139	0.025777	0.394416	-0.545031	-0.316151	-0.668899	-1.944131	-78.106270	-117.371219
59585		9.580235	-0.096595	2.064618	-0.027579	0.022219	0.029880	0.394446	-0.545056	-0.315971	-0.668945	-2.015710	-78.095603	-117.313062
59586		9.587931	-0.090131	2.045702	-0.021975	0.021135	0.022159	0.394484	-0.545049	-0.315851	-0.668986	-2.061275	-78.085465	-117.274670
59587		9.543030	-0.087513	1.976034	-0.020377	0.022996	0.026102	0.394558	-0.545029	-0.315737	-0.669012	-2.115063	-78.073996	-117.223964
59588		9.512182	-0.096997	1.963209	-0.017109	0.021368	0.022842	0.394611	-0.545012	-0.315631	-0.669044	-2.159514	-78.063696	-117.183860
59589		9.465023	-0.125090	1.991997	-0.016260	0.016931	0.020190	0.394633	-0.545016	-0.315526	-0.669078	-2.198638	-78.056170	-117.152109
59590		9.496334	-0.110988	2.041286	-0.011758	0.008058	0.018509	0.394665	-0.545027	-0.315476	-0.669073	-2.229576	-78.053575	-117.122680
59591		9.513785	-0.084697	2.033099	-0.014767	0.003484	0.020226	0.394689	-0.545061	-0.315421	-0.669058	-2.267627	-78.053528	-117.087624
59592		9.524109	-0.127768	1.990571	-0.022567	0.000946	0.025115	0.394703	-0.545128	-0.315331	-0.669038	-2.323388	-78.054844	-117.039152
59593		9.551059	-0.083235	1.994200	-0.023812	0.001671	0.023509	0.394705	-0.545193	-0.315235	-0.669028	-2.375565	-78.055771	-116.995818
59594		9.565074	-0.098071	2.050789	-0.015962	-0.006569	0.022414	0.394716	-0.545267	-0.315190	-0.668983	-2.421112	-78.061436	-116.953920
59595		9.589719	-0.072015	1.987684	-0.013840	0.001310	0.021429	0.394744	-0.545310	-0.315138	-0.668956	-2.462975	-78.062632	-116.914339
59596		9.606987	-0.127076	2.056143	-0.014495	0.003802	0.018715	0.394763	-0.545340	-0.315086	-0.668944	-2.496501	-78.062440	-116.883868
59597		9.653710	-0.103567	2.029485	-0.016604	0.002444	0.019733	0.394797	-0.545369	-0.315046	-0.668920	-2.532353	-78.062800	-116.848649
59598		9.602234	-0.100375	2.012244	-0.025400	0.006343	0.019603	0.394793	-0.545414	-0.314951	-0.668930	-2.574223	-78.061123	-116.816037
59599		9.551954	-0.087891	2.028281	-0.024473	0.004169	0.020802	0.394797	-0.545465	-0.314862	-0.668929	-2.619667	-78.060623	-116.778658
59600		9.506273	-0.093702	1.923739	-0.016711	0.005572	0.013987	0.394796	-0.545487	-0.314812	-0.668935	-2.641436	-78.059525	-116.761502
59601		9.482776	-0.114449	2.019913	-0.013693	-0.001766	0.014132	0.394793	-0.545528	-0.314786	-0.668916	-2.663167	-78.062612	-116.742763
59602		9.537841	-0.080834	1.971956	-0.011585	-0.000408	0.013116	0.394795	-0.545558	-0.314768	-0.668899	-2.680399	-78.064958	-116.727242
59603		9.551829	-0.094421	2.028575	-0.018096	-0.003612	0.006563	0.394731	-0.545614	-0.314732	-0.668907	-2.686024	-78.069462	-116.731233
59604		9.539172	-0.073741	2.004518	-0.018687	-0.005378	0.007670	0.394687	-0.545666	-0.314715	-0.668899	-2.693217	-78.074797	-116.730133
59605		9.552018	-0.096660	2.027581	-0.018963	-0.005696	0.009187	0.394650	-0.545719	-0.314697	-0.668885	-2.704250	-78.080180	-116.724663
59606		9.590680	-0.081671	2.021371	-0.012279	0.000955	0.008477	0.394636	-0.545739	-0.314686	-0.668882	-2.709157	-78.081869	-116.722147
59607		9.610379	-0.104158	1.990974	-0.008376	0.002221	0.006033	0.394615	-0.545751	-0.314681	-0.668888	-2.706131	-78.083040	-116.727755
59608		9.564700	-0.121305	2.051286	-0.010170	0.002312	0.007461	0.394605	-0.545760	-0.314678	-0.668887	-2.706900	-78.083980	-116.728233
59609		9.540001	-0.138122	1.949281	-0.008295	0.004481	0.009890	0.394602	-0.545769	-0.314660	-0.668890	-2.714079	-78.083707	-116.723006
59610		9.511875	-0.127023	2.001473	-0.011076	0.011010	0.006305	0.394600	-0.545749	-0.314640	-0.668917	-2.711116	-78.079700	-116.727829
59611		9.481284	-0.134569	1.987349	-0.010741	0.007067	0.008606	0.394586	-0.545756	-0.314607	-0.668936	-2.716917	-78.078043	-116.726354
59612		9.488171	-0.135373	1.933761	-0.008021	0.004800	0.008374	0.394590	-0.545754	-0.314603	-0.668937	-2.718611	-78.077534	-116.724628
59613		9.496228	-0.139554	2.078232	-0.002264	0.001713	0.008320	0.394610	-0.545748	-0.314629	-0.668917	-2.717272	-78.078726	-116.721661
59614		9.576718	-0.148752	2.077793	-0.002264	0.001713	0.008320	0.394624	-0.545745	-0.314651	-0.668901	-2.715920	-78.079986	-116.719677
59615		9.583656	-0.149449	2.023974	-0.003150	0.005019	0.009054	0.394641	-0.545736	-0.314659	-0.668895	-2.717083	-78.079344	-116.716261
59616		9.554391	-0.147684	2.042520	-0.002540	0.001394	0.009838	0.394659	-0.545737	-0.314676	-0.668876	-2.720044	-78.080745	-116.710030
59617		9.523872	-0.155298	2.028020	-0.005554	0.008735	0.009699	0.394682	-0.545718	-0.314671	-0.668879	-2.723953	-78.077924	-116.704242
59618		9.562360	-0.140487	2.022708	-0.007290	0.004564	0.014945	0.394709	-0.545726	-0.314652	-0.668866	-2.743070	-78.077371	-116.684281
59619		9.553964	-0.151317	2.044250	-0.005554	0.008735	0.009700	0.394732	-0.545708	-0.314646	-0.668871	-2.746394	-78.074514	-116.679260
59620		9.541094	-0.130768	2.021384	-0.001827	0.006548	0.014521	0.394775	-0.545697	-0.314643	-0.668855	-2.760965	-78.072835	-116.660745
59621		9.579609	-0.115987	2.016009	-0.000350	0.005009	0.012681	0.394827	-0.545679	-0.314664	-0.668829	-2.769220	-78.071936	-116.645576
59622		9.550315	-0.114372	2.034668	-0.000390	0.003880	0.010752	0.394858	-0.545669	-0.314681	-0.668811	-2.773103	-78.071888	-116.637143
59623		9.573185	-0.177454	2.015737	-0.000155	0.003069	0.007306	0.394880	-0.545654	-0.314712	-0.668796	-2.767579	-78.072383	-116.637721
59624		9.582536	-0.159241	2.028525	0.010497	0.006716	0.007975	0.394935	-0.545609	-0.314768	-0.668773	-2.757330	-78.070789	-116.637357
59625		9.590658	-0.150320	2.008201	0.014775	0.005165	0.009762	0.395002	-0.545566	-0.314832	-0.668739	-2.750082	-78.070071	-116.632296
59626		9.571563	-0.188779	1.984318	0.013930	0.009602	0.012426	0.395086	-0.545511	-0.314881	-0.668711	-2.749546	-78.066703	-116.619993
59627		9.489578	-0.190359	1.952799	0.018746	0.014079	0.009290	0.395169	-0.545436	-0.314934	-0.668699	-2.739446	-78.061013	-116.616919
59628		9.564062	-0.190258	2.040428	0.018733	0.002167	0.011141	0.395251	-0.545394	-0.315017	-0.668645	-2.733639	-78.061936	-116.607191
59629		9.572239	-0.181705	2.019847	0.018536	0.004110	0.016517	0.395353	-0.545356	-0.315080	-0.668586	-2.742770	-78.061619	-116.582487
59630		9.602517	-0.176309	2.035309	0.010906	0.005035	0.014137	0.395427	-0.545325	-0.315124	-0.668547	-2.749186	-78.060818	-116.564850
59631		9.606274	-0.136718	1.970390	0.007870	0.005858	0.013956	0.395475	-0.545309	-0.315138	-0.668525	-2.758649	-78.059748	-116.549558
59632		9.586379	-0.116535	2.001632	0.007990	0.009249	0.019744	0.395567	-0.545279	-0.315148	-0.668490	-2.781350	-78.056378	-116.516983
59633		9.525408	-0.131085	1.972375	0.012739	0.006072	0.014641	0.395627	-0.545257	-0.315171	-0.668462	-2.790837	-78.055201	-116.499580
59634		9.512627	-0.110428	1.949364	0.022479	0.006500	0.016009	0.395742	-0.545201	-0.315245	-0.668404	-2.795481	-78.053507	-116.476976
59635		9.494744	-0.139857	1.958503	0.026436	0.003500	0.017389	0.395848	-0.545163	-0.315315	-0.668340	-2.804359	-78.053656	-116.451444
59636		9.538899	-0.146587	2.030636	0.020245	0.001754	0.011239	0.395933	-0.545120	-0.315405	-0.668282	-2.798010	-78.054810	-116.441386
59637		9.527466	-0.116343	2.040166	0.004168	-0.002732	0.012918	0.395982	-0.545122	-0.315450	-0.668230	-2.806048	-78.058417	-116.424677
59638		9.540215	-0.139470	2.063150	0.001469	-0.011240	0.016934	0.396014	-0.545168	-0.315487	-0.668156	-2.827610	-78.066847	-116.397086
59639		9.624889	-0.108853	1.996069	0.016037	-0.011734	0.017058	0.396058	-0.545206	-0.315546	-0.668071	-2.844000	-78.075801	-116.371538
59640		9.601069	-0.056859	1.980899	0.020458	-0.010975	0.009651	0.396119	-0.545202	-0.315665	-0.667982	-2.834962	-78.084283	-116.364104
59641		9.649898	-0.094509	2.096156	0.005253	-0.013376	0.008708	0.396125	-0.545240	-0.315734	-0.667915	-2.833491	-78.094231	-116.359127
59642		9.713996	-0.123156	2.136735	-0.015269	-0.002446	0.012114	0.396109	-0.545283	-0.315711	-0.667900	-2.850469	-78.097762	-116.346024
59643		9.691352	-0.050671	1.991240	-0.032553	0.013321	0.025347	0.396100	-0.545337	-0.315548	-0.667938	-2.912235	-78.092016	-116.300198
59644		9.609279	-0.054389	1.960156	-0.027374	0.020371	0.024550	0.396129	-0.545347	-0.315404	-0.667980	-2.966723	-78.082121	-116.255850
59645		9.509396	-0.085852	1.937742	-0.022988	0.014608	0.017108	0.396143	-0.545352	-0.315314	-0.668011	-2.998631	-78.075696	-116.230779
59646		9.513417	-0.118886	1.983546	-0.014888	0.012047	0.012598	0.396154	-0.545346	-0.315262	-0.668034	-3.014664	-78.070912	-116.218420
59647		9.485850	-0.167454	1.980895	-0.012172	0.009773	0.012369	0.396165	-0.545345	-0.315220	-0.668048	-3.029960	-78.067479	-116.205823
59648		9.464801	-0.156551	1.978814	-0.015243	0.004078	0.012149	0.396160	-0.545366	-0.315183	-0.668051	-3.046108	-78.067267	-116.193553
59649		9.489957	-0.201642	2.025983	-0.011325	-0.005447	0.013490	0.396161	-0.545411	-0.315178	-0.668016	-3.065656	-78.072451	-116.174655
59650		9.538397	-0.168495	2.031295	-0.012875	-0.016946	0.015251	0.396140	-0.545502	-0.315183	-0.667952	-3.091929	-78.084170	-116.150651
59651		9.538709	-0.170147	2.029690	-0.014115	-0.016215	0.013643	0.396115	-0.545589	-0.315189	-0.667893	-3.114469	-78.095490	-116.130673
59652		9.587254	-0.136745	2.034604	-0.005057	-0.014436	0.010366	0.396103	-0.545649	-0.315228	-0.667833	-3.122713	-78.105923	-116.120518
59653		9.583204	-0.106258	1.988931	0.004918	-0.009445	0.006394	0.396095	-0.545677	-0.315284	-0.667788	-3.115473	-78.113795	-116.123666
59654		9.605497	-0.109645	2.023994	0.003957	-0.008397	0.003268	0.396093	-0.545688	-0.315361	-0.667744	-3.098365	-78.120993	-116.134141
59655		9.547273	-0.103898	2.059751	0.005110	-0.005998	-0.000875	0.396069	-0.545692	-0.315432	-0.667722	-3.070771	-78.127067	-116.157638
59656		9.558721	-0.135074	2.049677	0.000322	-0.003943	0.002303	0.396061	-0.545693	-0.315490	-0.667698	-3.052433	-78.131745	-116.171497
59657		9.545043	-0.123050	1.992103	-0.005421	-0.011622	0.006136	0.396029	-0.545744	-0.315524	-0.667660	-3.050208	-78.140816	-116.174161
59658		9.567323	-0.126869	2.027245	-0.010211	-0.004176	0.007423	0.396009	-0.545775	-0.315534	-0.667641	-3.051874	-78.145470	-116.173747
59659		9.576960	-0.108935	2.039056	-0.004143	-0.005832	0.007784	0.396008	-0.545798	-0.315569	-0.667607	-3.051080	-78.151039	-116.171679
59660		9.635401	-0.115506	2.002153	-0.006580	-0.003239	0.006497	0.395996	-0.545817	-0.315591	-0.667587	-3.048004	-78.155185	-116.173985
59661		9.622836	-0.094401	1.978405	-0.007180	0.000387	0.005713	0.395981	-0.545829	-0.315599	-0.667583	-3.044175	-78.157344	-116.178604
59662		9.613230	-0.113783	1.966355	-0.004148	0.004950	0.004003	0.395981	-0.545812	-0.315620	-0.667587	-3.031708	-78.156881	-116.189080
59663		9.535135	-0.086627	2.033850	-0.003592	0.005584	0.000966	0.395959	-0.545797	-0.315636	-0.667605	-3.012615	-78.156267	-116.208716
59664		9.532538	-0.105432	1.967872	-0.003912	0.004137	0.000554	0.395947	-0.545777	-0.315669	-0.667613	-2.990723	-78.156371	-116.228684
59665		9.554600	-0.108904	2.004076	-0.008378	0.002249	0.006035	0.395920	-0.545793	-0.315657	-0.667621	-2.989267	-78.157563	-116.233786
59666		9.553304	-0.118740	1.971056	-0.009381	0.002167	0.000979	0.395891	-0.545791	-0.315675	-0.667632	-2.971944	-78.158780	-116.252287
59667		9.531181	-0.116296	1.935093	-0.008376	-0.003143	0.007925	0.395879	-0.545816	-0.315686	-0.667613	-2.973763	-78.162847	-116.250784
59668		9.572985	-0.141797	1.940180	-0.007821	-0.002508	0.004889	0.395860	-0.545833	-0.315707	-0.667601	-2.966874	-78.166623	-116.257711
59669		9.597077	-0.067846	2.097707	-0.019874	0.003066	0.008032	0.395815	-0.545866	-0.315658	-0.667623	-2.975190	-78.167149	-116.258331
59670		9.537235	-0.072802	2.101946	-0.030969	0.018374	0.010525	0.395785	-0.545868	-0.315545	-0.667693	-2.993985	-78.158808	-116.252568
59671		9.578934	-0.086360	1.943873	-0.026976	0.016496	0.013832	0.395760	-0.545882	-0.315427	-0.667752	-3.021313	-78.151571	-116.238276
59672		9.559569	-0.125452	1.920411	-0.007337	0.008848	0.011138	0.395781	-0.545869	-0.315410	-0.667758	-3.029578	-78.148662	-116.229436
59673		9.577543	-0.170548	2.021937	0.008712	-0.004000	0.013187	0.395813	-0.545882	-0.315449	-0.667709	-3.037279	-78.153149	-116.215248
59674		9.488727	-0.172297	2.043348	-0.000669	0.003563	0.012280	0.395848	-0.545876	-0.315462	-0.667688	-3.045602	-78.153228	-116.202445
59675		9.527394	-0.157490	2.037738	-0.016565	0.002560	0.006693	0.395824	-0.545894	-0.315443	-0.667697	-3.047979	-78.154055	-116.204186
59676		9.575692	-0.124193	2.044135	-0.031698	-0.002946	0.011500	0.395761	-0.545970	-0.315367	-0.667708	-3.072905	-78.157881	-116.192584
59677		9.606211	-0.119986	2.058597	-0.034013	-0.007748	0.019784	0.395700	-0.546087	-0.315259	-0.667699	-3.123705	-78.164257	-116.158141
59678		9.534173	-0.104072	2.037539	-0.027026	-0.006196	0.019452	0.395671	-0.546177	-0.315184	-0.667678	-3.168196	-78.169690	-116.123815
59679		9.563453	-0.109481	2.018718	-0.014485	-0.005816	0.024446	0.395681	-0.546257	-0.315123	-0.667635	-3.220421	-78.174892	-116.076645
59680		9.536053	-0.158913	2.014396	-0.015166	-0.004444	0.019803	0.395689	-0.546318	-0.315083	-0.667600	-3.258877	-78.179299	-116.041544
59681		9.515270	-0.148621	2.011222	-0.020082	-0.005771	0.017190	0.395667	-0.546393	-0.315031	-0.667576	-3.294220	-78.184590	-116.013513
59682		9.515817	-0.209834	1.955130	-0.022843	-0.010013	0.017378	0.395637	-0.546484	-0.314982	-0.667542	-3.331385	-78.192254	-115.984226
59683		9.505990	-0.171862	1.997047	-0.025477	-0.010872	0.023364	0.395606	-0.546601	-0.314899	-0.667505	-3.387900	-78.200307	-115.939045
59684		9.493703	-0.152702	1.972130	-0.020933	-0.017514	0.025514	0.395596	-0.546726	-0.314849	-0.667431	-3.447594	-78.211971	-115.885627
59685		9.481547	-0.133421	1.946618	-0.018909	-0.023812	0.022516	0.395549	-0.546877	-0.314806	-0.667356	-3.500543	-78.227473	-115.842206
59686		9.513775	-0.120367	1.992389	-0.015004	-0.027954	0.021954	0.395527	-0.547020	-0.314807	-0.667252	-3.549072	-78.245213	-115.796729
59687		9.519826	-0.144900	2.067388	-0.014448	-0.027314	0.018919	0.395493	-0.547158	-0.314810	-0.667157	-3.590189	-78.262702	-115.759536
59688		9.567475	-0.121563	2.037851	-0.014817	-0.029886	0.016572	0.395450	-0.547298	-0.314830	-0.667057	-3.624388	-78.281728	-115.728591
59689		9.604127	-0.126100	1.962794	-0.016884	-0.024713	0.017643	0.395436	-0.547413	-0.314851	-0.666962	-3.659586	-78.297493	-115.693695
59690		9.582346	-0.124618	1.924884	-0.014480	-0.017651	0.013228	0.395403	-0.547506	-0.314857	-0.666902	-3.682370	-78.309639	-115.674213
59691		9.545215	-0.132787	1.962458	-0.010800	-0.015594	0.014232	0.395385	-0.547589	-0.314866	-0.666841	-3.706317	-78.320565	-115.651844
59692		9.531591	-0.121489	1.904322	-0.011716	-0.013411	0.013042	0.395365	-0.547662	-0.314873	-0.666789	-3.726325	-78.330290	-115.633581
59693		9.493020	-0.138765	1.909099	-0.011069	-0.010519	0.013872	0.395352	-0.547729	-0.314870	-0.666743	-3.748985	-78.338355	-115.612959
59694		9.522308	-0.143100	1.889898	-0.011707	-0.008016	0.011163	0.395334	-0.547782	-0.314872	-0.666710	-3.762858	-78.345064	-115.600955
59695		9.512592	-0.104047	1.932384	-0.015333	-0.003551	0.010215	0.395290	-0.547835	-0.314838	-0.666708	-3.775686	-78.349265	-115.595721
59696		9.522420	-0.145444	1.889152	-0.013851	0.000300	0.006488	0.395264	-0.547857	-0.314829	-0.666709	-3.776324	-78.351394	-115.598487
59697		9.522419	-0.146368	1.889088	-0.009578	-0.001274	0.008267	0.395247	-0.547882	-0.314827	-0.666700	-3.779856	-78.354357	-115.596999
59698		9.532110	-0.128542	1.901261	-0.008107	-0.002818	0.006419	0.395232	-0.547903	-0.314843	-0.666685	-3.777581	-78.358272	-115.599378
59699		9.552902	-0.141676	1.903973	-0.013562	0.006015	0.003092	0.395209	-0.547897	-0.314837	-0.666706	-3.767587	-78.357188	-115.612105
59700		9.543120	-0.160893	1.892136	-0.007170	0.005787	0.003852	0.395201	-0.547883	-0.314846	-0.666717	-3.756078	-78.356279	-115.623364
59701		9.545802	-0.143021	1.958878	-0.003915	-0.001249	0.002450	0.395168	-0.547897	-0.314866	-0.666717	-3.742340	-78.359643	-115.638588
59702		9.558290	-0.165246	1.982509	0.004331	0.004945	0.001834	0.395184	-0.547860	-0.314921	-0.666712	-3.718793	-78.359290	-115.655409
59703		9.627471	-0.143205	1.992043	0.006404	0.005167	-0.001117	0.395197	-0.547813	-0.314991	-0.666709	-3.686379	-78.358891	-115.679961
59704		9.609417	-0.171333	2.000976	0.008882	0.003690	0.002093	0.395224	-0.547772	-0.315063	-0.666693	-3.661171	-78.359243	-115.695817
59705		9.632841	-0.165533	2.070667	0.005257	0.008156	0.001146	0.395243	-0.547723	-0.315114	-0.666697	-3.635171	-78.357134	-115.715103
59706		9.696444	-0.180501	1.947812	0.001490	0.015678	0.007520	0.395287	-0.547665	-0.315123	-0.666715	-3.627148	-78.350432	-115.717737
59707		9.653098	-0.165362	1.911041	-0.002459	0.018699	0.006157	0.395324	-0.547600	-0.315120	-0.666747	-3.616943	-78.342038	-115.724200
59708		9.604072	-0.141652	1.962005	-0.003562	0.022814	0.010355	0.395375	-0.547533	-0.315091	-0.666787	-3.618429	-78.331153	-115.720081
59709		9.582807	-0.130044	1.961520	-0.000295	0.021172	0.007076	0.395413	-0.547464	-0.315077	-0.666827	-3.609908	-78.321359	-115.725714
59710		9.550563	-0.145919	1.915352	0.003621	0.022420	0.004629	0.395464	-0.547374	-0.315087	-0.666866	-3.591522	-78.310905	-115.737684
59711		9.482199	-0.159115	1.941500	0.007568	0.019399	0.005994	0.395515	-0.547297	-0.315103	-0.666892	-3.577060	-78.302279	-115.745346
59712		9.555239	-0.168996	1.996850	0.009643	0.019620	0.003045	0.395573	-0.547202	-0.315143	-0.666916	-3.551384	-78.293481	-115.761238
59713		9.561903	-0.168744	1.944432	0.010232	0.015991	0.003820	0.395625	-0.547123	-0.315186	-0.666930	-3.529148	-78.286759	-115.774105
59714		9.593374	-0.153297	1.994214	0.012264	0.015086	-0.001064	0.395669	-0.547032	-0.315256	-0.666946	-3.491468	-78.280695	-115.800723
59715		9.597145	-0.184568	2.040290	0.010201	0.020261	0.000008	0.395710	-0.546936	-0.315296	-0.666981	-3.458639	-78.271741	-115.825352
59716		9.562179	-0.159149	1.982744	0.010833	0.017758	0.002719	0.395766	-0.546844	-0.315345	-0.666999	-3.431821	-78.264013	-115.841715
59717		9.560538	-0.168366	1.951165	0.007476	0.017150	0.002127	0.395811	-0.546763	-0.315383	-0.667021	-3.406964	-78.256728	-115.858335
59718		9.562785	-0.150230	2.019260	0.005075	0.015484	0.004661	0.395855	-0.546694	-0.315412	-0.667038	-3.389210	-78.250232	-115.868811
59719		9.579204	-0.131511	1.978944	0.004751	0.014038	0.004245	0.395903	-0.546625	-0.315451	-0.667047	-3.371174	-78.244521	-115.878260
59720		9.547215	-0.147018	1.931886	0.004665	0.011786	0.000377	0.395926	-0.546563	-0.315498	-0.667063	-3.342512	-78.240282	-115.900118
59721		9.559159	-0.109939	2.012005	0.004988	0.013232	0.000793	0.395939	-0.546505	-0.315526	-0.667089	-3.316737	-78.235308	-115.921642
59722		9.592185	-0.144179	2.039259	0.010969	0.009304	-0.002720	0.395964	-0.546433	-0.315608	-0.667095	-3.276388	-78.232586	-115.951748
59723		9.617026	-0.115347	1.977979	0.006237	0.017889	0.000522	0.395988	-0.546354	-0.315635	-0.667132	-3.246912	-78.224873	-115.975979
59724		9.588755	-0.103116	2.031121	0.004397	0.016862	0.000017	0.396016	-0.546274	-0.315672	-0.667163	-3.216715	-78.217732	-115.999564
59725		9.596742	-0.093412	2.012118	0.005928	0.021838	-0.001772	0.396052	-0.546172	-0.315708	-0.667209	-3.180642	-78.207787	-116.028269
59726		9.554673	-0.068491	2.008928	0.002092	0.022845	0.004539	0.396098	-0.546084	-0.315713	-0.667250	-3.163317	-78.197074	-116.040054
59727		9.534984	-0.106084	1.986187	0.003525	0.020173	0.000761	0.396117	-0.546006	-0.315724	-0.667298	-3.136697	-78.188131	-116.063339
59728		9.520630	-0.165894	2.040745	0.006866	0.015387	0.003236	0.396161	-0.545931	-0.315763	-0.667315	-3.114245	-78.181724	-116.077568
59729		9.533179	-0.115146	1.955702	0.020069	0.006791	-0.002173	0.396207	-0.545853	-0.315875	-0.667299	-3.071596	-78.180417	-116.105225
59730		9.491461	-0.089221	1.950885	0.023583	0.004337	-0.008898	0.396239	-0.545762	-0.316025	-0.667283	-3.008047	-78.180698	-116.151656
59731		9.518659	-0.113783	2.064908	0.003570	0.004067	-0.006671	0.396229	-0.545712	-0.316109	-0.667290	-2.961219	-78.180973	-116.191365
59732		9.579302	-0.101194	2.096058	-0.020210	0.016721	0.000038	0.396191	-0.545681	-0.316064	-0.667359	-2.945454	-78.173889	-116.214614
59733		9.606078	-0.050927	1.903509	-0.021846	0.021331	0.009204	0.396188	-0.545652	-0.315980	-0.667425	-2.955422	-78.163860	-116.212273
59734		9.540910	-0.033258	1.830546	-0.017916	0.012915	0.012458	0.396191	-0.545649	-0.315916	-0.667455	-2.972806	-78.158587	-116.200309
59735		9.596754	-0.135775	2.036314	-0.009236	0.001307	0.010593	0.396200	-0.545661	-0.315916	-0.667440	-2.981396	-78.159948	-116.190932
59736		9.536964	-0.140094	2.040015	-0.006131	0.012386	0.008952	0.396223	-0.545631	-0.315902	-0.667458	-2.982526	-78.155081	-116.188677
59737		9.533069	-0.168792	1.941475	-0.009407	0.014032	0.012225	0.396265	-0.545599	-0.315879	-0.667471	-2.993322	-78.149083	-116.175764
59738		9.540895	-0.101447	1.977080	-0.015288	0.008380	0.008354	0.396254	-0.545599	-0.315844	-0.667493	-2.998630	-78.146526	-116.174600
59739		9.521553	-0.139972	1.952658	-0.012594	0.000700	0.009995	0.396247	-0.545622	-0.315830	-0.667485	-3.008657	-78.148313	-116.166671
59740		9.555563	-0.107376	2.067562	-0.006245	-0.000658	0.008839	0.396249	-0.545636	-0.315842	-0.667467	-3.011400	-78.150912	-116.162834
59741		9.584757	-0.111175	2.049484	0.002872	0.002221	0.007504	0.396264	-0.545626	-0.315871	-0.667452	-3.005939	-78.151964	-116.164080
59742		9.633155	-0.077085	2.056492	0.002768	0.004237	-0.000178	0.396268	-0.545592	-0.315928	-0.667451	-2.978226	-78.152033	-116.186086
59743		9.661030	-0.089169	2.005772	-0.000531	0.010153	-0.000717	0.396234	-0.545564	-0.315931	-0.667492	-2.952992	-78.149055	-116.213974
59744		9.609599	-0.082992	1.988999	-0.008680	0.011611	0.001868	0.396225	-0.545531	-0.315930	-0.667525	-2.936390	-78.144840	-116.231329
59745		9.549704	-0.086696	1.993222	-0.002210	0.013632	0.006517	0.396253	-0.545484	-0.315934	-0.667545	-2.928162	-78.139293	-116.236200
59746		9.537107	-0.065543	1.970787	-0.008578	0.009595	0.009549	0.396267	-0.545470	-0.315916	-0.667557	-2.932728	-78.136006	-116.231866
59747		9.566121	-0.069390	1.953657	-0.005890	0.011580	0.005503	0.396260	-0.545448	-0.315896	-0.667589	-2.926417	-78.131805	-116.240431
59748		9.565939	-0.070071	1.954526	-0.012014	0.006737	0.005081	0.396244	-0.545442	-0.315885	-0.667608	-2.921183	-78.130285	-116.248123
59749		9.578113	-0.092970	1.978881	-0.016202	0.010568	0.007162	0.396248	-0.545424	-0.315863	-0.667631	-2.921484	-78.126330	-116.249342
59750		9.598647	-0.106443	1.982767	-0.011918	0.014386	0.007078	0.396252	-0.545396	-0.315831	-0.667667	-2.920571	-78.120374	-116.252563
59751		9.584831	-0.094386	1.927392	-0.009795	0.015731	0.006068	0.396264	-0.545354	-0.315810	-0.667703	-2.915058	-78.113609	-116.258392
59752		9.486017	-0.113993	1.937535	-0.004923	0.015917	0.006759	0.396289	-0.545307	-0.315799	-0.667733	-2.909066	-78.106786	-116.262707
59753		9.552699	-0.115616	2.080312	-0.010745	0.016792	0.002942	0.396285	-0.545261	-0.315778	-0.667782	-2.895436	-78.099492	-116.278235
59754		9.680111	-0.100391	2.055126	-0.008280	0.015312	0.006160	0.396297	-0.545221	-0.315758	-0.667817	-2.889841	-78.093032	-116.284110
59755		9.673531	-0.087734	1.946184	-0.013399	0.025601	0.003242	0.396325	-0.545139	-0.315730	-0.667881	-2.876072	-78.080562	-116.297176
59756		9.567208	-0.107694	2.011193	-0.014291	0.023516	0.005861	0.396332	-0.545083	-0.315676	-0.667948	-2.872013	-78.069416	-116.305002
59757		9.517105	-0.151733	1.973353	-0.002176	0.024426	0.002784	0.396374	-0.544991	-0.315675	-0.667999	-2.852699	-78.057787	-116.319705
59758		9.552847	-0.095419	1.958776	0.000458	0.019890	-0.001324	0.396392	-0.544906	-0.315697	-0.668047	-2.821292	-78.048919	-116.346847
59759		9.558413	-0.108916	2.072033	-0.018578	0.029371	0.000260	0.396370	-0.544835	-0.315624	-0.668152	-2.804092	-78.034650	-116.372094
59760		9.515118	-0.093930	2.036128	-0.032424	0.030813	0.008634	0.396349	-0.544795	-0.315487	-0.668262	-2.817031	-78.019248	-116.373166
59761		9.513417	-0.104601	2.005565	-0.027252	0.027045	0.011620	0.396312	-0.544783	-0.315335	-0.668365	-2.838312	-78.006236	-116.368918
59762		9.526618	-0.114246	1.866524	-0.009960	0.024186	0.011535	0.396351	-0.544725	-0.315278	-0.668416	-2.847037	-77.994544	-116.361140
59763		9.473623	-0.122891	2.015295	0.013057	0.012798	0.013267	0.396438	-0.544666	-0.315311	-0.668397	-2.849809	-77.989335	-116.346715
59764		9.460124	-0.174353	2.102171	0.004396	0.007191	0.005737	0.396470	-0.544627	-0.315352	-0.668391	-2.836977	-77.987534	-116.352566
59765		9.514790	-0.149121	2.022465	-0.008098	0.007987	0.002642	0.396469	-0.544602	-0.315363	-0.668406	-2.823553	-77.985349	-116.364947
59766		9.532729	-0.121619	2.014972	-0.016540	0.009129	0.006734	0.396450	-0.544600	-0.315327	-0.668436	-2.825146	-77.982410	-116.368315
59767		9.603971	-0.082825	2.092032	-0.023825	0.007281	0.008561	0.396423	-0.544618	-0.315271	-0.668464	-2.835703	-77.980419	-116.365504
59768		9.633133	-0.087479	2.074505	-0.024062	0.003810	0.015822	0.396406	-0.544663	-0.315196	-0.668473	-2.866738	-77.980265	-116.343175
59769		9.590327	-0.073272	2.036576	-0.017627	0.014370	0.012878	0.396418	-0.544654	-0.315131	-0.668503	-2.885613	-77.974170	-116.328839
59770		9.641118	-0.081276	2.056118	-0.011823	0.017764	0.012899	0.396447	-0.544624	-0.315077	-0.668537	-2.899874	-77.966113	-116.316491
59771		9.601813	-0.098188	2.063472	-0.007286	0.020776	0.009373	0.396476	-0.544571	-0.315037	-0.668581	-2.901560	-77.956420	-116.315240
59772		9.579537	-0.095685	2.029492	-0.006677	0.022543	0.008277	0.396511	-0.544507	-0.315003	-0.668629	-2.899806	-77.945761	-116.316252
59773		9.569485	-0.115323	2.019039	-0.013677	0.021018	0.008583	0.396518	-0.544467	-0.314941	-0.668686	-2.904133	-77.936068	-116.316480
59774		9.560500	-0.126256	2.041782	-0.022447	0.020717	0.012253	0.396521	-0.544447	-0.314847	-0.668745	-2.922296	-77.926338	-116.306365
59775		9.566065	-0.077680	2.011789	-0.027024	0.016583	0.013841	0.396491	-0.544464	-0.314724	-0.668807	-2.949885	-77.919129	-116.292715
59776		9.513598	-0.082440	1.961872	-0.031820	0.014374	0.020822	0.396487	-0.544497	-0.314588	-0.668846	-2.997141	-77.912772	-116.258338
59777		9.526521	-0.097864	2.020030	-0.030994	0.014218	0.014333	0.396449	-0.544529	-0.314459	-0.668904	-3.029131	-77.906893	-116.241792
59778		9.517696	-0.109368	2.041891	-0.025572	0.009639	0.013862	0.396431	-0.544554	-0.314372	-0.668935	-3.054830	-77.903449	-116.225801
59779		9.525017	-0.110553	1.988750	-0.026803	0.010384	0.012253	0.396410	-0.544573	-0.314290	-0.668970	-3.076023	-77.899576	-116.214039
59780		9.547582	-0.106953	2.059174	-0.028286	0.011930	0.014101	0.396389	-0.544597	-0.314189	-0.669011	-3.103562	-77.894810	-116.197755
59781		9.566042	-0.139478	1.996207	-0.032579	0.008120	0.014167	0.396350	-0.544643	-0.314079	-0.669048	-3.134784	-77.892211	-116.180480
59782		9.563315	-0.100630	1.986054	-0.032292	0.008443	0.012652	0.396307	-0.544684	-0.313975	-0.669089	-3.161234	-77.889482	-116.167657
59783		9.524214	-0.118047	1.992162	-0.027742	0.007175	0.012931	0.396286	-0.544714	-0.313897	-0.669113	-3.185452	-77.887381	-116.152606
59784		9.555385	-0.104680	2.041695	-0.016482	0.011384	0.010627	0.396285	-0.544711	-0.313846	-0.669141	-3.196995	-77.883033	-116.145764
59785		9.543513	-0.142287	1.963385	-0.010160	0.008893	0.007540	0.396284	-0.544699	-0.313828	-0.669158	-3.197319	-77.880258	-116.146998
