// General information: 
//  MT Manager version: 2025.0.0 
//  XDA version: 2025.0.0 build 241121001 rev 1732180523 built on 2024-11-21
// Device information: 
//  DeviceId: 00B4245A
//  ProductCode: MTW2-3A7G6
//  Firmware Version: 4.14.0
//  Hardware Version: 1.1.0
// Device settings: 
//  Filter Profile: human(46.1)
//  Option Flags: Orientation Smoother Disabled, Position/Velocity Smoother Disabled, Continuous Zero Rotation Update Disabled, AHS Disabled, ICC Disabled
// Coordinate system: ENU
PacketCounter	SampleTimeFine	Acc_X	Acc_Y	Acc_Z	Gyr_X	Gyr_Y	Gyr_Z	Quat_q0	Quat_q1	Quat_q2	Quat_q3	Roll	Pitch	Yaw
40218		9.532252	-0.197271	2.215434	-0.003155	-0.015541	-0.000924	0.402915	-0.539748	-0.315832	-0.668268	-3.369078	-77.395435	-115.127244
40219		9.556230	-0.180711	2.194973	-0.003155	-0.015542	-0.000923	0.402869	-0.539789	-0.315909	-0.668226	-3.347328	-77.406560	-115.146727
40220		9.506624	-0.164386	2.208100	-0.003056	-0.018443	-0.001915	0.402823	-0.539830	-0.315999	-0.668178	-3.322811	-77.418856	-115.167925
40221		9.505480	-0.133824	2.168300	0.000453	-0.012591	-0.005886	0.402775	-0.539846	-0.316095	-0.668149	-3.285750	-77.428452	-115.200977
40222		9.505301	-0.129324	2.201267	0.004080	-0.015284	-0.003317	0.402741	-0.539865	-0.316200	-0.668104	-3.253503	-77.439159	-115.227202
40223		9.530001	-0.127575	2.200041	0.004019	-0.014293	-0.001400	0.402715	-0.539886	-0.316300	-0.668055	-3.226066	-77.449575	-115.248297
40224		9.528353	-0.093034	2.194545	0.000527	-0.016410	-0.004035	0.402667	-0.539916	-0.316397	-0.668015	-3.193939	-77.460946	-115.276587
40225		9.554281	-0.110452	2.178184	0.008751	-0.013102	0.000506	0.402662	-0.539926	-0.316505	-0.667958	-3.168440	-77.470617	-115.292918
40226		9.532195	-0.146167	2.180762	0.003935	-0.014219	0.003361	0.402651	-0.539954	-0.316589	-0.667902	-3.153677	-77.480530	-115.301402
40227		9.556098	-0.129532	2.160469	0.011192	-0.013043	-0.001879	0.402645	-0.539955	-0.316711	-0.667847	-3.120565	-77.490238	-115.324098
40228		9.583419	-0.176924	2.183019	0.010983	-0.004419	-0.003664	0.402647	-0.539924	-0.316819	-0.667820	-3.081872	-77.494712	-115.352707
40229		9.605900	-0.140568	2.178731	0.014600	-0.004290	-0.004863	0.402654	-0.539884	-0.316943	-0.667789	-3.037822	-77.499497	-115.384606
40230		9.533619	-0.159120	2.197208	0.008556	-0.000743	-0.007887	0.402636	-0.539841	-0.317044	-0.667787	-2.988933	-77.502060	-115.425777
40231		9.531606	-0.124188	2.193272	0.004780	0.003022	-0.003781	0.402632	-0.539798	-0.317118	-0.667788	-2.952275	-77.502618	-115.455867
40232		9.508100	-0.133470	2.124783	0.001140	0.001978	0.000261	0.402627	-0.539773	-0.317167	-0.667788	-2.928089	-77.503338	-115.475886
40233		9.484389	-0.149742	2.144303	0.001053	0.008616	-0.005359	0.402616	-0.539717	-0.317222	-0.667814	-2.888756	-77.500734	-115.510902
40234		9.509113	-0.152072	2.110679	0.001140	0.001977	0.000261	0.402612	-0.539690	-0.317273	-0.667814	-2.864065	-77.501395	-115.531185
40235		9.483920	-0.138184	2.091606	0.010751	0.003290	-0.002606	0.402628	-0.539637	-0.317363	-0.667805	-2.826980	-77.501752	-115.558207
40236		9.483868	-0.137576	2.091881	0.009636	0.002226	-0.005709	0.402632	-0.539579	-0.317462	-0.667803	-2.781022	-77.502293	-115.594533
40237		9.505036	-0.100383	2.244785	-0.012150	0.008086	-0.004137	0.402588	-0.539553	-0.317470	-0.667846	-2.752507	-77.499939	-115.626218
40238		9.530878	-0.122362	2.196534	-0.014812	0.012914	0.003072	0.402571	-0.539525	-0.317440	-0.667893	-2.743016	-77.494205	-115.639806
40239		9.555161	-0.114535	2.110111	-0.002835	0.011544	0.006349	0.402594	-0.539485	-0.317444	-0.667910	-2.735815	-77.489583	-115.644193
40240		9.481836	-0.119053	2.110553	0.012969	0.008238	-0.000164	0.402627	-0.539417	-0.317519	-0.667910	-2.703628	-77.486805	-115.665932
40241		9.554671	-0.121416	2.199184	0.025181	-0.000843	0.002058	0.402691	-0.539355	-0.317653	-0.667857	-2.670828	-77.489386	-115.680098
40242		9.531766	-0.152605	2.237620	0.017863	0.005532	-0.001165	0.402730	-0.539283	-0.317753	-0.667844	-2.633110	-77.488136	-115.704505
40243		9.506503	-0.138289	2.218883	0.008327	0.006961	-0.006828	0.402731	-0.539216	-0.317839	-0.667856	-2.586117	-77.486478	-115.743101
40244		9.531209	-0.140178	2.185459	-0.003676	0.007419	-0.007265	0.402700	-0.539169	-0.317883	-0.667892	-2.545039	-77.484221	-115.782821
40245		9.551713	-0.080979	2.231546	-0.009697	0.005324	-0.002757	0.402664	-0.539149	-0.317901	-0.667921	-2.519078	-77.483385	-115.810453
40246		9.552811	-0.099935	2.217079	-0.008531	0.008213	-0.005338	0.402620	-0.539117	-0.317917	-0.667966	-2.486070	-77.480766	-115.845863
40247		9.525509	-0.051872	2.194399	-0.002587	0.007568	-0.001319	0.402612	-0.539078	-0.317951	-0.667987	-2.459507	-77.478604	-115.869939
40248		9.478338	-0.077656	2.145415	0.001057	0.008610	-0.005357	0.402601	-0.539022	-0.318002	-0.668014	-2.421258	-77.475661	-115.904177
40249		9.504045	-0.105988	2.184728	0.001031	0.007697	-0.002515	0.402598	-0.538973	-0.318051	-0.668032	-2.389547	-77.473447	-115.931404
40250		9.478322	-0.087997	2.200096	-0.003565	0.001696	-0.004487	0.402567	-0.538949	-0.318100	-0.668046	-2.356230	-77.474360	-115.963020
40251		9.479500	-0.106787	2.185334	-0.001285	0.005650	-0.003964	0.402550	-0.538910	-0.318148	-0.668065	-2.322341	-77.473345	-115.993836
40252		9.502559	-0.085849	2.200879	-0.004704	-0.000281	-0.004749	0.402508	-0.538897	-0.318195	-0.668079	-2.288896	-77.475461	-116.027040
40253		9.505086	-0.123826	2.170618	-0.009498	-0.000481	-0.004739	0.402456	-0.538893	-0.318231	-0.668096	-2.258339	-77.477966	-116.059263
40254		9.526978	-0.083998	2.200871	-0.013078	-0.002518	-0.002617	0.402391	-0.538909	-0.318247	-0.668115	-2.235044	-77.481337	-116.087406
40255		9.501899	-0.070585	2.181302	-0.016758	-0.001656	0.000497	0.402336	-0.538932	-0.318247	-0.668130	-2.222242	-77.484393	-116.105702
40256		9.478833	-0.091630	2.165779	-0.019135	-0.002711	0.000965	0.402274	-0.538962	-0.318239	-0.668147	-2.211392	-77.487631	-116.123387
40257		9.502551	-0.075306	2.146326	-0.022500	-0.006817	-0.005503	0.402174	-0.539004	-0.318246	-0.668169	-2.186890	-77.493772	-116.157038
40258		9.477050	-0.057731	2.160710	-0.017832	-0.004631	-0.001679	0.402101	-0.539037	-0.318249	-0.668185	-2.169899	-77.498329	-116.181064
40259		9.528468	-0.093378	2.130074	-0.024864	-0.010698	-0.001267	0.402003	-0.539104	-0.318245	-0.668192	-2.158024	-77.506596	-116.203168
40260		9.501024	-0.041621	2.140107	-0.021258	-0.007747	-0.006229	0.401899	-0.539149	-0.318253	-0.668214	-2.132567	-77.513117	-116.238102
40261		9.525859	-0.051197	2.192894	-0.021219	-0.009657	-0.005304	0.401800	-0.539199	-0.318269	-0.668226	-2.108010	-77.520870	-116.271054
40262		9.551657	-0.068718	2.177178	-0.021292	-0.005844	-0.007151	0.401695	-0.539236	-0.318277	-0.668256	-2.078986	-77.526261	-116.309667
40263		9.576160	-0.066992	2.176776	-0.022466	-0.005918	-0.008336	0.401588	-0.539270	-0.318290	-0.668286	-2.046878	-77.531927	-116.351083
40264		9.553110	-0.087308	2.161182	-0.026254	0.000660	-0.007989	0.401478	-0.539294	-0.318270	-0.668342	-2.018259	-77.533608	-116.392035
40265		9.551085	-0.052652	2.157181	-0.029716	-0.000549	-0.013463	0.401343	-0.539317	-0.318262	-0.668409	-1.976491	-77.536292	-116.447597
40266		9.526301	-0.049891	2.191005	-0.032103	-0.005352	-0.006388	0.401207	-0.539379	-0.318225	-0.668458	-1.956474	-77.541546	-116.484354
40267		9.503251	-0.070554	2.175403	-0.034652	0.000300	-0.006768	0.401082	-0.539420	-0.318181	-0.668521	-1.934767	-77.543603	-116.522267
40268		9.502978	-0.059528	2.121882	-0.039400	-0.001824	-0.005828	0.400940	-0.539481	-0.318116	-0.668587	-1.919238	-77.546642	-116.557580
40269		9.502555	-0.055751	2.155911	-0.032132	-0.003460	-0.007304	0.400814	-0.539529	-0.318089	-0.668637	-1.894997	-77.550857	-116.596608
40270		9.503911	-0.074781	2.140315	-0.036854	-0.004669	-0.009204	0.400669	-0.539585	-0.318053	-0.668696	-1.869171	-77.555452	-116.639951
40271		9.504036	-0.074782	2.139757	-0.035638	-0.006513	-0.007094	0.400529	-0.539651	-0.318020	-0.668743	-1.847694	-77.561405	-116.678204
40272		9.526491	-0.039063	2.135419	-0.040396	-0.005815	-0.009914	0.400364	-0.539719	-0.317973	-0.668809	-1.821005	-77.566700	-116.725381
40273		9.527446	-0.054392	2.153773	-0.036792	-0.009427	-0.004514	0.400225	-0.539800	-0.317934	-0.668845	-1.807075	-77.574268	-116.756581
40274		9.528076	-0.058520	2.118767	-0.039277	-0.004769	-0.006802	0.400066	-0.539871	-0.317876	-0.668911	-1.786730	-77.578986	-116.797812
40275		9.528272	-0.058926	2.117874	-0.041494	-0.013478	-0.002650	0.399914	-0.539978	-0.317825	-0.668939	-1.780617	-77.588837	-116.823765
40276		9.528477	-0.059187	2.116945	-0.034420	-0.005555	-0.008731	0.399779	-0.540034	-0.317797	-0.668988	-1.755878	-77.593974	-116.864365
40277		9.551730	-0.038509	2.131679	-0.028356	-0.008169	-0.008562	0.399651	-0.540088	-0.317796	-0.669022	-1.726361	-77.600883	-116.906573
40278		9.579608	-0.090130	2.119632	-0.027180	-0.008101	-0.007376	0.399532	-0.540138	-0.317794	-0.669053	-1.699093	-77.607348	-116.945662
40279		9.554123	-0.072569	2.134046	-0.032064	-0.005428	-0.006353	0.399406	-0.540194	-0.317769	-0.669095	-1.677176	-77.612641	-116.982262
40280		9.553733	-0.068828	2.168046	-0.033376	-0.000696	-0.007453	0.399278	-0.540235	-0.317727	-0.669158	-1.653515	-77.615002	-117.022139
40281		9.552986	-0.054007	2.148715	-0.036992	-0.004608	0.000348	0.399163	-0.540309	-0.317666	-0.669197	-1.651804	-77.619710	-117.040942
40282		9.554768	-0.077458	2.098859	-0.032284	-0.000569	-0.001506	0.399068	-0.540352	-0.317618	-0.669241	-1.643606	-77.621757	-117.062800
40283		9.553441	-0.059041	2.114385	-0.030114	0.006290	0.000031	0.398987	-0.540375	-0.317558	-0.669299	-1.636304	-77.620228	-117.083292
40284		9.552080	-0.040771	2.130068	-0.030034	0.002464	0.001868	0.398910	-0.540408	-0.317504	-0.669344	-1.633070	-77.620376	-117.098984
40285		9.554069	-0.075758	2.134179	-0.027699	0.005439	0.000484	0.398836	-0.540429	-0.317453	-0.669395	-1.625630	-77.619326	-117.118200
40286		9.553128	-0.061079	2.115739	-0.027735	0.007346	-0.000431	0.398764	-0.540444	-0.317397	-0.669453	-1.618014	-77.616989	-117.137776
40287		9.504238	-0.064610	2.116082	-0.027733	0.007342	-0.000429	0.398690	-0.540457	-0.317344	-0.669511	-1.608081	-77.614863	-117.159565
40288		9.526360	-0.029409	2.113296	-0.032551	0.009021	-0.001321	0.398604	-0.540471	-0.317273	-0.669585	-1.598568	-77.611431	-117.183738
40289		9.527487	-0.049204	2.098629	-0.025369	0.004640	0.005694	0.398552	-0.540499	-0.317218	-0.669619	-1.603453	-77.610754	-117.188969
40290		9.525582	-0.027414	2.148966	-0.027829	0.010227	0.000582	0.398486	-0.540504	-0.317153	-0.669685	-1.596973	-77.606681	-117.207536
40291		9.526643	-0.047258	2.134576	-0.025506	0.009440	0.005787	0.398442	-0.540516	-0.317087	-0.669733	-1.601833	-77.603253	-117.212873
40292		9.550277	-0.042896	2.170194	-0.027900	0.014042	-0.001244	0.398373	-0.540508	-0.317017	-0.669813	-1.591090	-77.597126	-117.236405
40293		9.526434	-0.060497	2.190156	-0.027911	0.010272	0.005344	0.398322	-0.540522	-0.316943	-0.669868	-1.596121	-77.593229	-117.242978
40294		9.550802	-0.052032	2.103488	-0.019447	0.006835	0.005946	0.398289	-0.540533	-0.316896	-0.669901	-1.599584	-77.591102	-117.246976
40295		9.499114	-0.006052	2.080902	-0.003708	0.002736	0.002214	0.398281	-0.540518	-0.316926	-0.669903	-1.583147	-77.591570	-117.261333
40296		9.452204	-0.051237	2.172022	-0.011851	0.001251	-0.007995	0.398217	-0.540507	-0.316957	-0.669935	-1.546156	-77.592762	-117.301550
40297		9.574304	-0.055339	2.226458	-0.032265	0.002217	-0.005245	0.398106	-0.540539	-0.316912	-0.669996	-1.526694	-77.593638	-117.335757
40298		9.598223	-0.043409	2.173982	-0.056764	0.011805	0.011255	0.398003	-0.540612	-0.316722	-0.670089	-1.564110	-77.588405	-117.325789
40299		9.546591	0.008915	2.064497	-0.040169	0.012687	0.018318	0.397967	-0.540662	-0.316566	-0.670144	-1.609754	-77.582918	-117.297970
40300		9.499675	-0.030713	2.068779	-0.037630	0.009875	0.014922	0.397924	-0.540706	-0.316436	-0.670196	-1.644215	-77.578624	-117.279693
40301		9.503108	-0.097753	2.111004	-0.035054	0.005154	0.012436	0.397869	-0.540762	-0.316328	-0.670234	-1.672155	-77.577540	-117.267000
40302		9.454471	-0.114429	2.164535	-0.032782	0.009114	0.012983	0.397826	-0.540803	-0.316212	-0.670281	-1.701390	-77.574013	-117.252577
40303		9.455618	-0.135298	2.149599	-0.021844	0.001020	0.015846	0.397812	-0.540852	-0.316148	-0.670280	-1.730936	-77.575236	-117.230489
40304		9.504888	-0.137718	2.115442	-0.014460	-0.005371	0.014243	0.397805	-0.540905	-0.316122	-0.670254	-1.754674	-77.579936	-117.210257
40305		9.528147	-0.118531	2.130255	-0.005790	-0.010803	0.006230	0.397783	-0.540947	-0.316161	-0.670214	-1.750972	-77.588096	-117.212795
40306		9.552234	-0.114447	2.163782	-0.015404	-0.010296	0.008202	0.397742	-0.541009	-0.316157	-0.670190	-1.758949	-77.595692	-117.209514
40307		9.549616	-0.065816	2.140464	-0.015477	-0.006471	0.006381	0.397702	-0.541055	-0.316155	-0.670178	-1.760845	-77.601368	-117.212004
40308		9.523368	-0.033840	2.136042	-0.015413	-0.007452	0.004458	0.397645	-0.541105	-0.316152	-0.670173	-1.757467	-77.607452	-117.221540
40309		9.523530	-0.034624	2.135307	-0.005888	-0.007916	0.007243	0.397631	-0.541138	-0.316182	-0.670140	-1.756229	-77.613940	-117.221613
40310		9.549279	-0.052843	2.119532	-0.004789	-0.004019	0.006605	0.397626	-0.541151	-0.316211	-0.670119	-1.751361	-77.617762	-117.224543
40311		9.546877	-0.015816	2.149859	-0.004752	-0.005933	0.007516	0.397619	-0.541176	-0.316240	-0.670089	-1.750023	-77.623110	-117.224053
40312		9.548988	-0.050927	2.152963	-0.006023	-0.003111	0.007347	0.397615	-0.541193	-0.316257	-0.670070	-1.750017	-77.626573	-117.223027
40313		9.525910	-0.072346	2.137145	-0.010922	-0.001390	0.011221	0.397611	-0.541221	-0.316247	-0.670054	-1.761524	-77.629254	-117.213005
40314		9.548261	-0.037823	2.133811	-0.008589	0.001598	0.009842	0.397610	-0.541234	-0.316236	-0.670050	-1.768853	-77.630061	-117.206900
40315		9.526347	-0.078129	2.102923	-0.001408	0.000993	0.010259	0.397633	-0.541233	-0.316255	-0.670028	-1.772212	-77.631394	-117.199640
40316		9.549438	-0.058800	2.118659	-0.003814	0.001832	0.009817	0.397650	-0.541233	-0.316264	-0.670014	-1.776248	-77.631937	-117.193151
40317		9.525002	-0.061216	2.118727	-0.003850	0.003746	0.008907	0.397666	-0.541225	-0.316274	-0.670006	-1.777251	-77.631717	-117.189734
40318		9.550046	-0.076152	2.138201	-0.008624	0.003510	0.008933	0.397668	-0.541229	-0.316264	-0.670006	-1.782420	-77.631406	-117.185290
40319		9.548428	-0.046546	2.100791	-0.012324	0.006234	0.011156	0.397673	-0.541234	-0.316234	-0.670014	-1.793950	-77.629721	-117.176067
40320		9.523950	-0.049482	2.101044	-0.012313	0.003382	0.014902	0.397683	-0.541255	-0.316195	-0.670009	-1.816210	-77.629354	-117.156462
40321		9.500692	-0.071248	2.085947	-0.004007	0.007611	0.011848	0.397715	-0.541240	-0.316188	-0.670005	-1.824660	-77.626867	-117.145513
40322		9.526128	-0.089871	2.071467	0.000768	0.007845	0.011823	0.397758	-0.541215	-0.316193	-0.669998	-1.830718	-77.623983	-117.134742
40323		9.500389	-0.073599	2.087244	0.000840	0.004015	0.013644	0.397802	-0.541205	-0.316205	-0.669974	-1.841372	-77.623521	-117.118694
40324		9.523322	-0.075112	2.244608	-0.014981	0.013829	0.014670	0.397827	-0.541193	-0.316141	-0.669999	-1.863947	-77.617097	-117.099451
40325		9.523003	-0.056822	2.105145	-0.019936	0.016520	0.020472	0.397859	-0.541193	-0.316039	-0.670028	-1.903223	-77.609343	-117.066285
40326		9.523888	-0.078157	2.091212	-0.012781	0.014971	0.023728	0.397920	-0.541188	-0.315955	-0.670035	-1.947914	-77.602109	-117.023290
40327		9.502406	-0.135104	2.080258	0.004077	0.010024	0.023992	0.398018	-0.541168	-0.315938	-0.670002	-1.983093	-77.597995	-116.980230
40328		9.525621	-0.128553	2.149696	0.012802	0.000776	0.017788	0.398103	-0.541154	-0.315979	-0.669943	-1.999617	-77.599118	-116.951867
40329		9.551290	-0.159529	2.188236	0.014923	0.008601	0.021279	0.398218	-0.541112	-0.316008	-0.669894	-2.021625	-77.595866	-116.915930
40330		9.548449	-0.111330	2.166601	0.003118	0.007966	0.014198	0.398280	-0.541081	-0.316020	-0.669877	-2.030968	-77.592654	-116.899439
40331		9.598700	-0.132612	2.118200	-0.009015	0.011267	0.019579	0.398330	-0.541076	-0.315968	-0.669877	-2.061989	-77.587905	-116.868316
40332		9.569684	-0.064052	2.146534	-0.017457	0.014697	0.018992	0.398358	-0.541076	-0.315878	-0.669902	-2.097013	-77.580981	-116.838664
40333		9.544831	-0.055865	2.094346	-0.013907	0.012977	0.023458	0.398410	-0.541081	-0.315796	-0.669906	-2.140697	-77.575162	-116.797442
40334		9.469723	-0.040087	2.144485	-0.005462	0.009540	0.024049	0.398479	-0.541082	-0.315744	-0.669889	-2.181661	-77.571029	-116.754655
40335		9.493900	-0.040828	2.145554	0.004208	0.008051	0.020152	0.398561	-0.541062	-0.315741	-0.669857	-2.206805	-77.568092	-116.721789
40336		9.519300	-0.059949	2.131132	0.004296	0.008016	0.015390	0.398626	-0.541035	-0.315747	-0.669837	-2.220357	-77.565048	-116.701365
40337		9.494235	-0.059482	2.165900	-0.001704	0.005837	0.019900	0.398688	-0.541034	-0.315730	-0.669810	-2.248437	-77.563378	-116.668961
40338		9.494792	-0.076881	2.185253	-0.013563	0.003333	0.018485	0.398712	-0.541061	-0.315681	-0.669797	-2.280798	-77.562847	-116.638921
40339		9.493536	-0.060173	2.200863	-0.008783	0.000702	0.022210	0.398754	-0.541095	-0.315644	-0.669762	-2.319455	-77.564057	-116.599839
40340		9.495281	-0.084723	2.150929	-0.005056	-0.003938	0.020896	0.398796	-0.541133	-0.315630	-0.669712	-2.353545	-77.567631	-116.563332
40341		9.497723	-0.124583	2.119692	-0.005055	-0.003941	0.020897	0.398837	-0.541173	-0.315618	-0.669661	-2.387181	-77.571519	-116.527206
40342		9.519811	-0.087620	2.150320	-0.005022	-0.005858	0.021808	0.398875	-0.541217	-0.315607	-0.669608	-2.421497	-77.576043	-116.490623
40343		9.494365	-0.072301	2.164939	-0.009795	-0.006088	0.021832	0.398902	-0.541275	-0.315581	-0.669557	-2.460563	-77.581128	-116.451718
40344		9.494373	-0.062674	2.110982	-0.015708	-0.008297	0.021580	0.398911	-0.541349	-0.315541	-0.669511	-2.501969	-77.587063	-116.413642
40345		9.518377	-0.060156	2.144853	-0.018082	-0.006512	0.018302	0.398904	-0.541419	-0.315498	-0.669479	-2.536716	-77.592468	-116.384023
40346		9.564984	-0.021712	2.175357	-0.010758	-0.010990	0.015776	0.398898	-0.541485	-0.315492	-0.669432	-2.561003	-77.600205	-116.361404
40347		9.519867	-0.082657	2.127836	-0.010908	-0.004273	0.014977	0.398903	-0.541529	-0.315477	-0.669401	-2.582773	-77.604408	-116.340865
40348		9.519995	-0.084117	2.127210	-0.003586	-0.008750	0.012449	0.398912	-0.541567	-0.315501	-0.669353	-2.594641	-77.610919	-116.326267
40349		9.521291	-0.104300	2.111066	-0.003673	-0.005865	0.013469	0.398929	-0.541599	-0.315517	-0.669310	-2.608553	-77.616070	-116.309531
40350		9.520889	-0.102086	2.144900	-0.003647	-0.004919	0.010632	0.398939	-0.541621	-0.315539	-0.669275	-2.615637	-77.620429	-116.299693
40351		9.499075	-0.154260	2.166420	-0.007159	-0.007971	0.010823	0.398934	-0.541663	-0.315555	-0.669237	-2.624919	-77.626854	-116.289741
40352		9.497452	-0.121271	2.162151	-0.007184	-0.008919	0.013661	0.398944	-0.541709	-0.315567	-0.669188	-2.643022	-77.633387	-116.270076
40353		9.498111	-0.126205	2.126985	-0.008413	-0.008013	0.014405	0.398947	-0.541759	-0.315569	-0.669145	-2.662408	-77.639739	-116.250517
40354		9.522204	-0.123030	2.160556	-0.008293	-0.012819	0.014296	0.398934	-0.541832	-0.315570	-0.669092	-2.685051	-77.648893	-116.229622
40355		9.498046	-0.125960	2.159271	-0.015554	-0.009314	0.014901	0.398918	-0.541902	-0.315550	-0.669056	-2.710034	-77.655973	-116.208523
40356		9.521993	-0.111123	2.139544	-0.016719	-0.012244	0.017465	0.398896	-0.541989	-0.315519	-0.669013	-2.742620	-77.664428	-116.181454
40357		9.522733	-0.116652	2.103900	-0.021458	-0.014392	0.018403	0.398868	-0.542092	-0.315480	-0.668964	-2.780860	-77.674312	-116.150250
40358		9.545748	-0.095280	2.152813	-0.019203	-0.008519	0.018047	0.398859	-0.542167	-0.315439	-0.668928	-2.816557	-77.680444	-116.119638
40359		9.520901	-0.083081	2.132854	-0.014374	-0.009265	0.016092	0.398850	-0.542236	-0.315420	-0.668887	-2.844108	-77.687452	-116.095222
40360		9.546541	-0.102378	2.116834	-0.013207	-0.006337	0.013531	0.398841	-0.542290	-0.315400	-0.668858	-2.866267	-77.692696	-116.076125
40361		9.545127	-0.081743	2.165913	-0.010774	-0.009105	0.014880	0.398837	-0.542349	-0.315396	-0.668814	-2.888607	-77.699643	-116.054931
40362		9.545221	-0.083229	2.165441	-0.013297	-0.000584	0.010806	0.398832	-0.542376	-0.315377	-0.668804	-2.901580	-77.701489	-116.044345
40363		9.570705	-0.102339	2.150079	-0.020492	-0.000916	0.013234	0.398810	-0.542424	-0.315329	-0.668801	-2.924106	-77.703795	-116.028661
40364		9.544559	-0.071078	2.146554	-0.021803	0.002874	0.015002	0.398794	-0.542466	-0.315258	-0.668810	-2.952500	-77.703664	-116.008500
40365		9.569480	-0.087165	2.165981	-0.021832	0.004790	0.014095	0.398780	-0.542500	-0.315191	-0.668822	-2.977287	-77.702676	-115.991287
40366		9.546048	-0.109015	2.150833	-0.015917	0.006993	0.014344	0.398781	-0.542518	-0.315131	-0.668835	-3.000227	-77.700280	-115.973778
40367		9.569615	-0.094053	2.132921	-0.013599	0.009029	0.015806	0.398802	-0.542523	-0.315079	-0.668843	-3.024192	-77.696812	-115.952579
40368		9.545618	-0.112254	2.152572	-0.011180	0.012007	0.009663	0.398815	-0.542502	-0.315044	-0.668868	-3.030794	-77.691492	-115.947633
40369		9.545946	-0.129000	2.172654	-0.013633	0.013818	0.011155	0.398828	-0.542484	-0.314994	-0.668899	-3.041893	-77.685423	-115.939621
40370		9.518947	-0.081689	2.151468	-0.013578	0.012850	0.009225	0.398831	-0.542466	-0.314949	-0.668934	-3.047526	-77.679639	-115.937681
40371		9.519295	-0.098447	2.171436	-0.018318	0.010702	0.010162	0.398822	-0.542466	-0.314893	-0.668965	-3.059130	-77.675383	-115.931899
40372		9.497414	-0.154225	2.160214	-0.012457	0.013869	0.012343	0.398849	-0.542444	-0.314845	-0.668989	-3.073886	-77.668886	-115.918738
40373		9.471066	-0.122511	2.157762	-0.009974	0.010136	0.011760	0.398868	-0.542433	-0.314813	-0.669002	-3.084956	-77.664903	-115.908609
40374		9.546737	-0.173328	2.147290	-0.006430	0.011266	0.012478	0.398903	-0.542408	-0.314789	-0.669013	-3.095548	-77.659859	-115.896666
40375		9.544846	-0.140328	2.144781	-0.006318	0.006462	0.012361	0.398928	-0.542402	-0.314775	-0.669009	-3.106603	-77.657960	-115.884408
40376		9.471534	-0.145145	2.144736	-0.006292	0.007417	0.009524	0.398949	-0.542384	-0.314769	-0.669014	-3.109400	-77.655156	-115.880091
40377		9.543952	-0.127280	2.127130	-0.011058	0.004314	0.013297	0.398961	-0.542396	-0.314741	-0.669010	-3.125915	-77.654456	-115.865024
40378		9.544418	-0.144101	2.146437	-0.006263	0.005495	0.010431	0.398981	-0.542387	-0.314735	-0.669008	-3.132254	-77.652788	-115.857186
40379		9.519308	-0.130882	2.127919	-0.003892	0.006567	0.009965	0.399005	-0.542372	-0.314736	-0.669006	-3.135628	-77.650902	-115.851367
40380		9.518128	-0.113184	2.143816	-0.007379	0.001596	0.011059	0.399021	-0.542381	-0.314731	-0.668991	-3.146267	-77.651524	-115.839709
40381		9.518650	-0.129908	2.162845	-0.009777	0.002443	0.010620	0.399025	-0.542392	-0.314719	-0.668986	-3.155319	-77.651976	-115.831531
40382		9.494219	-0.132273	2.162745	-0.006152	0.000689	0.010314	0.399039	-0.542400	-0.314723	-0.668969	-3.162777	-77.653094	-115.822433
40383		9.543524	-0.134234	2.128624	0.003522	-0.005583	0.011046	0.399067	-0.542412	-0.314770	-0.668920	-3.166483	-77.658124	-115.811925
40384		9.492709	-0.087465	2.105154	0.013275	-0.011862	0.007008	0.399098	-0.542418	-0.314871	-0.668850	-3.154186	-77.666491	-115.812221
40385		9.468109	-0.097532	2.191635	0.006156	-0.006446	-0.002825	0.399086	-0.542406	-0.314966	-0.668822	-3.120206	-77.672450	-115.838745
40386		9.493283	-0.111760	2.209804	-0.022350	-0.012597	-0.002774	0.398987	-0.542471	-0.314975	-0.668824	-3.103942	-77.681618	-115.864118
40387		9.566446	-0.096938	2.156798	-0.039587	0.002951	0.008705	0.398904	-0.542538	-0.314867	-0.668870	-3.125000	-77.681839	-115.861133
40388		9.539592	-0.025750	2.028254	-0.024208	0.002724	0.017414	0.398891	-0.542586	-0.314786	-0.668877	-3.159776	-77.681561	-115.835247
40389		9.468675	-0.081109	2.049544	-0.019197	-0.005700	0.014308	0.398869	-0.542650	-0.314748	-0.668856	-3.185092	-77.686554	-115.815947
40390		9.495475	-0.143522	2.124483	-0.023834	-0.006892	0.007635	0.398816	-0.542711	-0.314717	-0.668852	-3.196351	-77.692027	-115.812916
40391		9.447372	-0.162786	2.142343	-0.023964	-0.003053	0.010597	0.398772	-0.542770	-0.314668	-0.668854	-3.214307	-77.695622	-115.803946
40392		9.446808	-0.136414	2.069766	-0.010750	-0.008196	0.012038	0.398763	-0.542819	-0.314668	-0.668819	-3.229505	-77.701784	-115.790078
40393		9.498528	-0.188112	2.056612	0.003923	-0.020006	0.005905	0.398752	-0.542871	-0.314759	-0.668741	-3.221690	-77.715227	-115.791130
40394		9.522385	-0.180392	2.123693	0.008843	-0.019781	-0.003667	0.398723	-0.542899	-0.314887	-0.668675	-3.187565	-77.728644	-115.816720
40395		9.496395	-0.143480	2.152454	0.004184	-0.024814	-0.003756	0.398674	-0.542951	-0.315015	-0.668602	-3.154814	-77.745144	-115.843137
40396		9.544074	-0.106417	2.147248	-0.008921	-0.024478	-0.005313	0.398589	-0.543024	-0.315102	-0.668553	-3.126751	-77.761184	-115.872057
40397		9.568343	-0.089624	2.126512	-0.009102	-0.019676	-0.000419	0.398522	-0.543091	-0.315165	-0.668508	-3.109541	-77.774635	-115.890358
40398		9.593127	-0.088558	2.124912	-0.009129	-0.017756	-0.001324	0.398460	-0.543146	-0.315229	-0.668471	-3.089224	-77.786575	-115.911323
40399		9.569497	-0.093099	2.088885	-0.002123	-0.012610	0.001133	0.398429	-0.543178	-0.315298	-0.668431	-3.071037	-77.795933	-115.926530
40400		9.593733	-0.088998	2.122157	0.001427	-0.014364	0.005592	0.398422	-0.543213	-0.315369	-0.668372	-3.063712	-77.805828	-115.928369
40401		9.570213	-0.105762	2.139602	0.003862	-0.010405	-0.003393	0.398396	-0.543219	-0.315466	-0.668338	-3.029751	-77.814060	-115.956205
40402		9.545829	-0.094303	2.085410	0.001384	-0.006673	-0.002802	0.398371	-0.543215	-0.315544	-0.668318	-2.998184	-77.819793	-115.983060
40403		9.547654	-0.128192	2.087824	0.003913	-0.011367	-0.005325	0.398337	-0.543221	-0.315648	-0.668285	-2.959124	-77.828626	-116.016080
40404		9.547219	-0.112124	2.068232	0.000182	-0.004807	-0.004891	0.398304	-0.543211	-0.315723	-0.668277	-2.922528	-77.833364	-116.048917
40405		9.522995	-0.113050	2.067324	0.002618	-0.010464	0.000195	0.398286	-0.543225	-0.315806	-0.668238	-2.898659	-77.841511	-116.067157
40406		9.498797	-0.114060	2.066293	0.003783	-0.007522	-0.002366	0.398276	-0.543216	-0.315898	-0.668207	-2.866964	-77.847566	-116.091481
40407		9.523746	-0.116021	2.031386	0.002538	-0.007580	0.001222	0.398266	-0.543222	-0.315972	-0.668174	-2.845430	-77.854030	-116.107376
40408		9.523873	-0.116096	2.030784	-0.004657	-0.005035	-0.000084	0.398237	-0.543226	-0.316023	-0.668163	-2.822374	-77.858581	-116.128666
40409		9.473427	-0.093495	2.114015	-0.003445	-0.009788	0.005750	0.398223	-0.543258	-0.316069	-0.668124	-2.816573	-77.866178	-116.131974
40410		9.547564	-0.096962	2.044943	-0.005822	-0.007978	0.002477	0.398197	-0.543281	-0.316112	-0.668100	-2.803677	-77.872472	-116.143591
40411		9.595687	-0.088585	2.113321	0.001243	-0.006676	0.006741	0.398203	-0.543295	-0.316165	-0.668060	-2.797408	-77.878261	-116.144631
40412		9.620615	-0.091059	2.078423	-0.002229	-0.007808	0.001258	0.398182	-0.543310	-0.316222	-0.668034	-2.779665	-77.884556	-116.159380
40413		9.667757	-0.076148	2.216463	-0.019418	0.012556	0.003345	0.398151	-0.543296	-0.316177	-0.668085	-2.773686	-77.879432	-116.172231
40414		9.620236	-0.092421	2.080116	-0.017228	0.018436	0.007767	0.398152	-0.543261	-0.316116	-0.668142	-2.777121	-77.870430	-116.173947
40415		9.546043	-0.081531	2.062697	-0.005425	0.021885	0.011090	0.398200	-0.543200	-0.316078	-0.668181	-2.782549	-77.859753	-116.166930
40416		9.498679	-0.109926	1.980020	0.010202	0.019739	0.006370	0.398274	-0.543107	-0.316106	-0.668198	-2.768972	-77.850212	-116.170168
40417		9.548741	-0.163370	2.125731	0.022452	0.007806	0.002628	0.398347	-0.543024	-0.316213	-0.668172	-2.737750	-77.847825	-116.184303
40418		9.523746	-0.161206	2.160765	0.015238	0.009387	0.004161	0.398406	-0.542953	-0.316284	-0.668161	-2.714937	-77.844232	-116.194601
40419		9.474561	-0.151260	2.108257	0.003298	0.012667	0.000050	0.398426	-0.542888	-0.316323	-0.668184	-2.687249	-77.839130	-116.216347
40420		9.522064	-0.130301	2.125284	-0.003860	0.010404	0.003393	0.398431	-0.542850	-0.316330	-0.668208	-2.673178	-77.834979	-116.229022
40421		9.569035	-0.094268	2.123198	-0.006222	0.006444	0.007607	0.398440	-0.542836	-0.316329	-0.668214	-2.671805	-77.833235	-116.229429
40422		9.569933	-0.113825	2.108173	-0.003774	0.004635	0.006111	0.398450	-0.542819	-0.316345	-0.668215	-2.664858	-77.832179	-116.233966
40423		9.542789	-0.062613	2.120796	-0.000281	0.006725	0.008759	0.398480	-0.542794	-0.316360	-0.668210	-2.663104	-77.830243	-116.231281
40424		9.520286	-0.102154	2.090190	0.002089	0.007798	0.008289	0.398518	-0.542760	-0.316381	-0.668205	-2.659797	-77.827427	-116.228810
40425		9.519061	-0.083920	2.106637	0.008025	0.010964	0.005697	0.398567	-0.542700	-0.316424	-0.668204	-2.644641	-77.823146	-116.234966
40426		9.495523	-0.104285	2.091655	0.005762	0.005084	0.006045	0.398601	-0.542665	-0.316467	-0.668192	-2.633744	-77.822008	-116.238564
40427		9.520426	-0.119166	2.110931	0.001100	0.000053	0.005957	0.398615	-0.542656	-0.316508	-0.668172	-2.624583	-77.823965	-116.242646
40428		9.546265	-0.140657	2.061229	0.002274	0.000109	0.007142	0.398631	-0.542650	-0.316542	-0.668151	-2.619405	-77.825745	-116.243265
40429		9.543643	-0.088072	2.073504	-0.000073	-0.000003	0.004772	0.398637	-0.542641	-0.316582	-0.668135	-2.607777	-77.827764	-116.250559
40430		9.543196	-0.085453	2.107870	-0.001319	-0.000061	0.008359	0.398654	-0.542639	-0.316608	-0.668115	-2.606913	-77.829402	-116.247554
40431		9.567556	-0.085087	2.108160	-0.001347	0.001862	0.007453	0.398668	-0.542631	-0.316633	-0.668101	-2.602903	-77.830284	-116.247801
40432		9.544125	-0.105814	2.092644	0.003371	0.003045	0.009354	0.398701	-0.542612	-0.316664	-0.668082	-2.600638	-77.830144	-116.244093
40433		9.568447	-0.105488	2.093105	0.005768	0.002195	0.009791	0.398744	-0.542592	-0.316706	-0.668053	-2.598714	-77.830775	-116.238035
40434		9.543436	-0.092050	2.074283	0.003349	0.002081	0.012194	0.398785	-0.542582	-0.316729	-0.668026	-2.605075	-77.831173	-116.225624
40435		9.544504	-0.124078	2.112181	0.003372	0.003043	0.009355	0.398821	-0.542563	-0.316763	-0.668003	-2.603266	-77.831329	-116.220855
40436		9.566223	-0.070441	2.125002	0.008162	0.004229	0.006483	0.398862	-0.542526	-0.316815	-0.667985	-2.590987	-77.830565	-116.224222
40437		9.543797	-0.109712	2.093938	0.008217	0.000382	0.008296	0.398903	-0.542505	-0.316873	-0.667949	-2.583911	-77.832272	-116.222001
40438		9.543811	-0.110282	2.093846	0.008294	-0.002501	0.007270	0.398933	-0.542491	-0.316937	-0.667912	-2.573669	-77.835330	-116.223518
40439		9.543372	-0.107537	2.128158	0.004646	0.001177	0.006674	0.398961	-0.542471	-0.316986	-0.667888	-2.564234	-77.836623	-116.225802
40440		9.518848	-0.097088	2.074823	0.004624	0.000214	0.009514	0.398999	-0.542456	-0.317030	-0.667857	-2.562097	-77.837984	-116.220284
40441		9.519432	-0.113327	2.093500	0.005924	-0.003574	0.007740	0.399026	-0.542452	-0.317090	-0.667816	-2.555322	-77.841970	-116.219098
40442		9.494080	-0.096169	2.108638	0.008268	-0.000580	0.006364	0.399062	-0.542432	-0.317152	-0.667781	-2.545381	-77.844064	-116.219850
40443		9.495129	-0.115317	2.092862	0.003625	-0.004643	0.003436	0.399067	-0.542429	-0.317218	-0.667750	-2.528606	-77.848771	-116.230241
40444		9.494193	-0.096991	2.108092	0.002303	-0.001818	0.008051	0.399085	-0.542427	-0.317257	-0.667722	-2.524677	-77.851485	-116.228899
40445		9.495289	-0.116552	2.092069	0.002433	-0.008547	0.008838	0.399098	-0.542448	-0.317312	-0.667670	-2.523398	-77.858290	-116.224138
40446		9.517749	-0.066404	2.069289	0.006006	-0.009346	0.010461	0.399126	-0.542466	-0.317374	-0.667610	-2.524877	-77.865209	-116.214626
40447		9.520025	-0.117085	2.090596	0.008377	-0.008276	0.009992	0.399159	-0.542477	-0.317445	-0.667548	-2.523239	-77.871829	-116.206748
40448		9.542591	-0.079023	2.121139	0.015517	-0.006988	0.009491	0.399212	-0.542466	-0.317537	-0.667480	-2.516149	-77.877416	-116.200475
40449		9.545257	-0.132571	2.108259	0.010820	-0.007204	0.004750	0.399237	-0.542460	-0.317628	-0.667428	-2.499013	-77.883554	-116.207019
40450		9.593669	-0.127419	2.142714	0.012992	0.000592	0.008265	0.399284	-0.542431	-0.317694	-0.667391	-2.489463	-77.884972	-116.205942
40451		9.569726	-0.132538	2.108016	0.003508	-0.003690	0.010145	0.399312	-0.542436	-0.317740	-0.667349	-2.490486	-77.888965	-116.198197
40452		9.568752	-0.114715	2.123466	0.003358	0.002076	0.012196	0.399353	-0.542426	-0.317763	-0.667321	-2.496657	-77.889360	-116.185992
40453		9.569107	-0.119307	2.089339	-0.000284	0.002871	0.015348	0.399399	-0.542425	-0.317768	-0.667292	-2.512972	-77.889466	-116.164830
40454		9.544730	-0.134084	2.142778	0.004411	0.005969	0.016342	0.399467	-0.542404	-0.317779	-0.667263	-2.529506	-77.887453	-116.140676
40455		9.568396	-0.118904	2.124837	0.001988	0.008745	0.014997	0.399527	-0.542378	-0.317781	-0.667247	-2.542883	-77.884203	-116.121187
40456		9.543827	-0.121202	2.125385	0.002084	0.006825	0.011130	0.399569	-0.542351	-0.317796	-0.667237	-2.545295	-77.881810	-116.113336
40457		9.542573	-0.091338	2.088437	0.000814	0.008690	0.013812	0.399621	-0.542326	-0.317797	-0.667226	-2.556180	-77.878621	-116.097083
40458		9.518511	-0.109328	2.107955	0.000767	0.009647	0.015746	0.399679	-0.542302	-0.317787	-0.667216	-2.572525	-77.874600	-116.076054
40459		9.468025	-0.078376	2.105119	-0.006282	0.009333	0.008631	0.399696	-0.542280	-0.317778	-0.667227	-2.573582	-77.871175	-116.074011
40460		9.494191	-0.115924	2.074938	-0.005008	0.004579	0.009699	0.399711	-0.542274	-0.317776	-0.667224	-2.577575	-77.870151	-116.068656
40461		9.495150	-0.148065	2.112966	-0.003807	0.002707	0.011793	0.399735	-0.542274	-0.317780	-0.667208	-2.586429	-77.870437	-116.057188
40462		9.494963	-0.124685	2.006573	0.012996	-0.002313	0.012021	0.399798	-0.542257	-0.317847	-0.667152	-2.586708	-77.873258	-116.044793
40463		9.469202	-0.104002	2.056098	0.015509	-0.001232	0.002002	0.399835	-0.542217	-0.317950	-0.667114	-2.558883	-77.876050	-116.059521
40464		9.493697	-0.115247	2.109408	-0.004792	-0.001178	0.002872	0.399820	-0.542217	-0.317980	-0.667108	-2.545266	-77.878494	-116.071873
40465		9.567484	-0.140440	2.181984	-0.032258	-0.000483	0.003337	0.399734	-0.542272	-0.317918	-0.667145	-2.548268	-77.880823	-116.083064
40466		9.590163	-0.082454	2.072680	-0.039774	0.005892	0.019312	0.399692	-0.542343	-0.317775	-0.667180	-2.597107	-77.878721	-116.051629
40467		9.564033	-0.039648	2.016777	-0.020862	0.011537	0.024085	0.399725	-0.542368	-0.317671	-0.667190	-2.647412	-77.873628	-116.007759
40468		9.541429	-0.092970	2.039508	-0.020647	0.005780	0.017257	0.399722	-0.542401	-0.317593	-0.667202	-2.679214	-77.871702	-115.983453
40469		9.566751	-0.124823	2.077664	-0.026423	0.000718	0.011207	0.399679	-0.542452	-0.317527	-0.667217	-2.699716	-77.873137	-115.973325
40470		9.493528	-0.141977	2.130616	-0.025413	0.008449	0.013544	0.399652	-0.542486	-0.317432	-0.667251	-2.727089	-77.870048	-115.957299
40471		9.541565	-0.113774	2.059779	-0.019422	0.007755	0.012766	0.399645	-0.542502	-0.317371	-0.667271	-2.746839	-77.867411	-115.943839
40472		9.517046	-0.116284	2.060071	-0.010965	0.003328	0.011394	0.399648	-0.542511	-0.317351	-0.667271	-2.756532	-77.866893	-115.935691
40473		9.542412	-0.147234	2.097946	-0.013104	-0.002519	0.002188	0.399607	-0.542532	-0.317361	-0.667275	-2.745808	-77.870426	-115.949696
40474		9.565403	-0.112425	2.094696	-0.013150	-0.001565	0.004123	0.399574	-0.542549	-0.317364	-0.667280	-2.737945	-77.872855	-115.960551
40475		9.563968	-0.091123	2.144791	-0.010918	0.005263	0.005714	0.399562	-0.542545	-0.317355	-0.667293	-2.734361	-77.871837	-115.965974
40476		9.589614	-0.112795	2.095661	-0.012116	0.007137	0.003622	0.399539	-0.542535	-0.317340	-0.667322	-2.725287	-77.869529	-115.978538
40477		9.587999	-0.078828	2.093224	-0.013291	0.009980	-0.001310	0.399505	-0.542510	-0.317333	-0.667367	-2.703770	-77.866002	-116.003693
40478		9.538992	-0.081069	2.093797	-0.018080	0.011687	-0.002183	0.399453	-0.542488	-0.317305	-0.667429	-2.681944	-77.861243	-116.032842
40479		9.538717	-0.081054	2.095050	-0.012139	0.014846	-0.004774	0.399418	-0.542438	-0.317302	-0.667492	-2.649984	-77.855018	-116.068005
40480		9.563326	-0.095419	2.115305	-0.013265	0.010946	-0.004149	0.399378	-0.542406	-0.317297	-0.667545	-2.622828	-77.850801	-116.099158
40481		9.514774	-0.100777	2.081544	-0.010964	0.011998	0.000160	0.399359	-0.542371	-0.317290	-0.667588	-2.603711	-77.846070	-116.120497
40482		9.514504	-0.100699	2.082779	-0.006149	0.014155	-0.005552	0.399338	-0.542309	-0.317309	-0.667641	-2.566547	-77.839908	-116.157377
40483		9.489881	-0.101699	2.083602	-0.006151	0.008365	0.001939	0.399332	-0.542280	-0.317320	-0.667663	-2.549866	-77.837207	-116.173403
40484		9.516495	-0.153720	2.072282	-0.003660	0.008499	-0.005241	0.399308	-0.542232	-0.317357	-0.667699	-2.512572	-77.834273	-116.209287
40485		9.540231	-0.136822	2.054568	-0.008473	0.009234	-0.003274	0.399280	-0.542197	-0.317373	-0.667737	-2.483302	-77.831202	-116.239553
40486		9.539070	-0.130433	2.124180	-0.010892	0.009116	-0.000870	0.399254	-0.542169	-0.317373	-0.667775	-2.462354	-77.827833	-116.262733
40487		9.538912	-0.118422	2.071771	-0.012114	0.007123	0.003624	0.399235	-0.542158	-0.317362	-0.667800	-2.453742	-77.825795	-116.274002
40488		9.538788	-0.119058	2.072305	-0.009697	0.004346	0.004965	0.399224	-0.542153	-0.317359	-0.667812	-2.448113	-77.825013	-116.280949
40489		9.538195	-0.104067	2.054047	-0.013286	0.007071	0.002438	0.399198	-0.542144	-0.317348	-0.667841	-2.437037	-77.823033	-116.295424
40490		9.513223	-0.077622	1.982462	-0.010892	0.006218	0.002876	0.399171	-0.542138	-0.317335	-0.667867	-2.427865	-77.821484	-116.308202
40491		9.559786	-0.075806	2.174525	-0.020536	0.012502	0.002162	0.399133	-0.542124	-0.317290	-0.667923	-2.419612	-77.816402	-116.324041
40492		9.535109	-0.065172	2.122519	-0.018281	0.017399	0.004667	0.399119	-0.542096	-0.317230	-0.667983	-2.418831	-77.808317	-116.331338
40493		9.536673	-0.103510	2.092984	-0.012342	0.017666	0.005825	0.399124	-0.542054	-0.317192	-0.668032	-2.415030	-77.800190	-116.337819
40494		9.514902	-0.149174	1.994329	0.000776	0.015379	0.008294	0.399164	-0.541999	-0.317190	-0.668054	-2.410299	-77.793068	-116.338502
40495		9.514118	-0.158959	2.082774	0.014151	0.003514	0.005724	0.399217	-0.541951	-0.317268	-0.668023	-2.392638	-77.793044	-116.343633
40496		9.512441	-0.149682	2.186413	0.003405	0.006872	0.002789	0.399235	-0.541908	-0.317310	-0.668028	-2.372316	-77.790836	-116.358124
40497		9.464012	-0.155591	2.152184	-0.013404	0.007997	0.009152	0.399233	-0.541906	-0.317279	-0.668046	-2.379019	-77.788163	-116.354480
40498		9.511739	-0.123167	2.115836	-0.010889	0.006213	0.002876	0.399222	-0.541890	-0.317279	-0.668065	-2.368515	-77.786249	-116.365929
40499		9.512042	-0.126889	2.082439	-0.013441	0.014737	0.003605	0.399211	-0.541857	-0.317248	-0.668113	-2.359839	-77.779849	-116.378043
40500		9.535723	-0.123578	2.117858	-0.008527	0.001490	0.009896	0.399200	-0.541877	-0.317229	-0.668112	-2.367891	-77.780934	-116.372969
40501		9.534239	-0.090400	2.114957	-0.008595	0.004364	0.010931	0.399210	-0.541881	-0.317216	-0.668110	-2.376938	-77.780300	-116.364108
40502		9.510212	-0.108386	2.133713	-0.009773	0.001417	0.013486	0.399222	-0.541898	-0.317197	-0.668097	-2.393400	-77.780944	-116.348367
40503		9.533693	-0.077698	2.096567	-0.014536	0.001196	0.013515	0.399221	-0.541928	-0.317163	-0.668090	-2.413034	-77.782059	-116.332156
40504		9.557053	-0.059253	2.112714	-0.010938	0.004262	0.008558	0.399218	-0.541931	-0.317148	-0.668097	-2.417081	-77.781201	-116.329784
40505		9.533597	-0.080135	2.096912	-0.003719	-0.002143	0.011673	0.399234	-0.541947	-0.317162	-0.668067	-2.426024	-77.784271	-116.318172
40506		9.558383	-0.095659	2.116080	-0.003754	0.004603	0.006127	0.399245	-0.541928	-0.317179	-0.668068	-2.418590	-77.783183	-116.322925
40507		9.558215	-0.108517	2.169487	-0.001220	0.000901	0.000751	0.399236	-0.541912	-0.317225	-0.668065	-2.396879	-77.784775	-116.341212
40508		9.583099	-0.110878	2.135566	-0.002487	0.002752	0.003439	0.399241	-0.541893	-0.317256	-0.668062	-2.383151	-77.784856	-116.351534
40509		9.533253	-0.094691	2.151032	-0.008538	0.006307	0.005254	0.399236	-0.541881	-0.317255	-0.668076	-2.376943	-77.783244	-116.358248
40510		9.532662	-0.079961	2.132976	-0.016960	0.008788	0.007535	0.399225	-0.541876	-0.317217	-0.668105	-2.380458	-77.779683	-116.359140
40511		9.508191	-0.069651	2.080396	-0.022942	0.009467	0.008315	0.399196	-0.541886	-0.317153	-0.668144	-2.390248	-77.776188	-116.357931
40512		9.507059	-0.052274	2.096762	-0.025292	0.006467	0.009683	0.399162	-0.541911	-0.317083	-0.668177	-2.404927	-77.774002	-116.352967
40513		9.457741	-0.039918	2.077928	-0.025196	0.004567	0.005808	0.399111	-0.541939	-0.317027	-0.668211	-2.409921	-77.773372	-116.357986
40514		9.505484	-0.020114	2.094506	-0.017993	0.002985	0.004278	0.399070	-0.541956	-0.316999	-0.668235	-2.407732	-77.773467	-116.366784
40515		9.481916	-0.052980	2.131702	-0.020203	-0.002857	-0.000172	0.399001	-0.541989	-0.316991	-0.668253	-2.394889	-77.777231	-116.387126
40516		9.506390	-0.052208	2.131628	-0.020107	-0.004755	-0.004048	0.398913	-0.542021	-0.316996	-0.668278	-2.371193	-77.781844	-116.418987
40517		9.508412	-0.089687	2.099875	-0.020106	-0.004757	-0.004048	0.398828	-0.542054	-0.317003	-0.668298	-2.348225	-77.786784	-116.449631
40518		9.532501	-0.073122	2.080911	-0.022476	-0.005833	-0.003582	0.398733	-0.542100	-0.316996	-0.668322	-2.329752	-77.792201	-116.478153
40519		9.508673	-0.089901	2.098683	-0.023626	-0.007809	-0.003867	0.398634	-0.542150	-0.316997	-0.668339	-2.309561	-77.798879	-116.508018
40520		9.510746	-0.127536	2.066648	-0.023672	-0.006865	-0.001927	0.398541	-0.542200	-0.316987	-0.668358	-2.294116	-77.804656	-116.533540
40521		9.559664	-0.125600	2.066603	-0.020054	-0.005713	-0.005982	0.398448	-0.542233	-0.317002	-0.668380	-2.266003	-77.810178	-116.569414
40522		9.509541	-0.105985	2.115375	-0.017716	-0.008522	0.000131	0.398382	-0.542276	-0.317015	-0.668379	-2.252084	-77.816713	-116.588715
40523		9.583359	-0.106261	2.081335	-0.020167	-0.001898	-0.003000	0.398305	-0.542301	-0.317014	-0.668405	-2.231498	-77.819978	-116.616955
40524		9.582932	-0.090816	2.062611	-0.015520	0.002145	-0.000051	0.398259	-0.542307	-0.317009	-0.668429	-2.216826	-77.820605	-116.636467
40525		9.581950	-0.072482	2.078386	-0.015499	0.000218	0.000848	0.398210	-0.542322	-0.317009	-0.668446	-2.203542	-77.822571	-116.654499
40526		9.608111	-0.121919	2.100582	-0.010806	0.003316	0.001857	0.398184	-0.542319	-0.317012	-0.668463	-2.190734	-77.822460	-116.669421
40527		9.558306	-0.105688	2.115950	-0.007244	0.002514	0.003478	0.398171	-0.542314	-0.317028	-0.668468	-2.179460	-77.823052	-116.680558
40528		9.582599	-0.105172	2.116664	-0.004942	0.006462	0.004054	0.398174	-0.542289	-0.317041	-0.668480	-2.167399	-77.820975	-116.690924
40529		9.557459	-0.103581	2.151695	-0.006221	0.013135	0.002111	0.398175	-0.542244	-0.317042	-0.668515	-2.150855	-77.815515	-116.706853
40530		9.557787	-0.107098	2.118224	-0.008530	0.006282	0.005272	0.398174	-0.542229	-0.317041	-0.668528	-2.145244	-77.813560	-116.712633
40531		9.531824	-0.074342	2.115757	-0.013349	0.011830	0.002609	0.398156	-0.542204	-0.317019	-0.668570	-2.134250	-77.808835	-116.727062
40532		9.508099	-0.094744	2.101070	-0.012291	0.015692	0.006778	0.398164	-0.542167	-0.316983	-0.668612	-2.133359	-77.801437	-116.730133
40533		9.531222	-0.075961	2.118412	-0.011052	0.012868	0.006924	0.398169	-0.542140	-0.316956	-0.668644	-2.132391	-77.796025	-116.732960
40534		9.531388	-0.092673	2.138150	-0.009841	0.009064	0.009907	0.398185	-0.542126	-0.316932	-0.668657	-2.140109	-77.792397	-116.725675
40535		9.554733	-0.061226	2.102107	-0.007462	0.013045	0.005708	0.398196	-0.542090	-0.316919	-0.668686	-2.133849	-77.786910	-116.731811
40536		9.505683	-0.063963	2.102668	-0.009831	0.011967	0.006172	0.398212	-0.542055	-0.316906	-0.668710	-2.131146	-77.781530	-116.733892
40537		9.529646	-0.076293	2.157211	-0.008584	0.012051	0.002581	0.398207	-0.542020	-0.316900	-0.668745	-2.117373	-77.776678	-116.748373
40538		9.529476	-0.076802	2.157941	-0.008461	0.003405	0.004231	0.398193	-0.542016	-0.316903	-0.668755	-2.109214	-77.776507	-116.757601
40539		9.554552	-0.066506	2.071065	-0.003654	0.002689	0.002260	0.398185	-0.542001	-0.316933	-0.668757	-2.092687	-77.777021	-116.772010
40540		9.455969	-0.051666	2.085717	0.005987	0.002238	-0.004519	0.398169	-0.541964	-0.317004	-0.668763	-2.053247	-77.777850	-116.806251
40541		9.504526	-0.061640	2.139675	-0.008185	0.002573	-0.012046	0.398102	-0.541936	-0.317058	-0.668801	-2.001504	-77.778716	-116.859349
40542		9.552108	-0.053085	2.209344	-0.026096	0.002649	-0.008797	0.397999	-0.541947	-0.317043	-0.668861	-1.968957	-77.779135	-116.903181
40543		9.602039	-0.044733	2.088958	-0.041977	0.015232	0.002944	0.397909	-0.541967	-0.316918	-0.668956	-1.975048	-77.772446	-116.916914
40544		9.550997	0.030326	1.996305	-0.036150	0.014480	0.011721	0.397864	-0.541993	-0.316787	-0.669024	-2.002338	-77.765796	-116.905887
40545		9.528568	-0.038110	2.037098	-0.027566	0.002433	0.009133	0.397815	-0.542038	-0.316719	-0.669050	-2.017695	-77.766313	-116.901692
40546		9.528827	-0.096231	2.181038	-0.025155	0.007399	0.002101	0.397753	-0.542049	-0.316665	-0.669102	-2.012007	-77.763812	-116.918099
40547		9.504375	-0.085261	2.128779	-0.022982	0.017076	0.004778	0.397725	-0.542029	-0.316595	-0.669169	-2.011882	-77.756031	-116.927057
40548		9.504098	-0.086141	2.129979	-0.020443	0.008567	0.004015	0.397681	-0.542032	-0.316548	-0.669215	-2.008683	-77.752897	-116.938644
40549		9.504957	-0.105352	2.114734	-0.015505	0.002122	-0.000050	0.397633	-0.542039	-0.316546	-0.669239	-1.992928	-77.753776	-116.959213
40550		9.578097	-0.102381	2.115917	-0.009453	0.001503	-0.005613	0.397582	-0.542029	-0.316575	-0.669263	-1.960787	-77.754934	-116.993456
40551		9.552334	-0.068652	2.112753	-0.007066	0.000656	-0.005181	0.397537	-0.542016	-0.316618	-0.669280	-1.926782	-77.756748	-117.027753
40552		9.502991	-0.067291	2.146310	-0.003395	-0.003950	-0.006550	0.397495	-0.542007	-0.316687	-0.669281	-1.888225	-77.760878	-117.064118
40553		9.503608	-0.069372	2.111853	-0.003419	0.002810	-0.012071	0.397440	-0.541968	-0.316756	-0.669311	-1.833728	-77.761576	-117.117243
40554		9.501845	-0.018179	2.090400	-0.008109	-0.000291	-0.013087	0.397364	-0.541952	-0.316812	-0.669343	-1.782267	-77.763966	-117.170749
40555		9.527244	-0.034818	2.074892	-0.000995	-0.001888	-0.009849	0.397316	-0.541928	-0.316893	-0.669353	-1.732606	-77.767295	-117.217503
40556		9.551850	-0.061542	2.146766	0.000175	-0.001840	-0.008662	0.397274	-0.541904	-0.316971	-0.669360	-1.686429	-77.770360	-117.260523
40557		9.551507	-0.045196	2.127933	0.000097	-0.001883	-0.003884	0.397249	-0.541888	-0.317039	-0.669356	-1.651860	-77.773571	-117.291195
40558		9.552924	-0.079155	2.130661	-0.001073	-0.001931	-0.005070	0.397217	-0.541870	-0.317106	-0.669358	-1.614476	-77.776478	-117.325489
40559		9.552938	-0.078744	2.130613	-0.001140	0.000936	-0.004023	0.397192	-0.541846	-0.317165	-0.669363	-1.580006	-77.778069	-117.356784
40560		9.578260	-0.096065	2.115473	-0.003594	0.004648	-0.003408	0.397167	-0.541815	-0.317204	-0.669385	-1.548219	-77.777232	-117.387233
40561		9.576817	-0.061617	2.112867	-0.003605	0.001738	0.000323	0.397152	-0.541801	-0.317241	-0.669388	-1.526587	-77.778289	-117.406838
40562		9.528002	-0.063701	2.112330	-0.010700	0.001406	-0.002020	0.397112	-0.541795	-0.317262	-0.669407	-1.503012	-77.779221	-117.432335
40563		9.577295	-0.064791	2.079020	-0.008495	0.007236	0.002449	0.397099	-0.541775	-0.317266	-0.669428	-1.489421	-77.777095	-117.446579
40564		9.526786	-0.045567	2.129083	-0.007228	0.005401	-0.000248	0.397080	-0.541753	-0.317285	-0.669449	-1.468522	-77.775740	-117.467398
40565		9.502874	-0.049577	2.094901	-0.003691	0.006529	0.000477	0.397073	-0.541722	-0.317312	-0.669465	-1.447023	-77.774045	-117.486917
40566		9.552923	-0.081822	2.098996	0.003550	0.004038	-0.003005	0.397070	-0.541681	-0.317374	-0.669471	-1.413662	-77.773610	-117.514608
40567		9.528294	-0.053894	2.027322	-0.001206	0.003802	-0.002975	0.397053	-0.541649	-0.317425	-0.669482	-1.381801	-77.773521	-117.543273
40568		9.549128	-0.022675	2.181568	-0.021483	0.007600	-0.003887	0.396986	-0.541643	-0.317400	-0.669539	-1.359559	-77.770987	-117.574117
40569		9.525116	-0.027166	2.147841	-0.025330	0.014037	0.006148	0.396950	-0.541640	-0.317324	-0.669598	-1.364995	-77.764907	-117.578762
40570		9.549475	-0.014651	2.096350	-0.023003	0.011220	0.012253	0.396934	-0.541655	-0.317238	-0.669636	-1.388093	-77.760307	-117.565098
40571		9.478687	-0.059056	2.030394	-0.011026	0.010893	0.007848	0.396939	-0.541637	-0.317212	-0.669661	-1.390014	-77.756005	-117.564954
40572		9.526667	-0.054828	2.066321	0.006959	0.006064	0.004444	0.396976	-0.541590	-0.317265	-0.669651	-1.373082	-77.754149	-117.573204
40573		9.477314	-0.082781	2.171949	0.008310	-0.000559	0.001589	0.396993	-0.541562	-0.317343	-0.669627	-1.348133	-77.756492	-117.589218
40574		9.502298	-0.084631	2.138056	-0.003622	0.003661	-0.000570	0.396975	-0.541542	-0.317373	-0.669640	-1.325561	-77.756307	-117.610706
40575		9.526257	-0.067901	2.120054	-0.013082	0.002247	-0.002453	0.396926	-0.541540	-0.317385	-0.669665	-1.302018	-77.757094	-117.637824
40576		9.549952	-0.064240	2.155113	-0.014349	0.004077	0.000245	0.396882	-0.541540	-0.317378	-0.669695	-1.286551	-77.756569	-117.658106
40577		9.623065	-0.062024	2.156448	-0.013273	0.001168	0.009939	0.396871	-0.541561	-0.317358	-0.669693	-1.295893	-77.757811	-117.651686
40578		9.572889	-0.030651	2.152965	-0.013193	0.001213	0.005162	0.396853	-0.541571	-0.317354	-0.669698	-1.293247	-77.758704	-117.656601
40579		9.548770	-0.048478	2.171625	-0.008651	0.007132	0.012011	0.396871	-0.541567	-0.317332	-0.669701	-1.305054	-77.756502	-117.644948
40580		9.523910	-0.034934	2.153073	-0.010903	0.002246	0.009480	0.396865	-0.541580	-0.317315	-0.669702	-1.311700	-77.756870	-117.640507
40581		9.549214	-0.053647	2.138004	-0.013306	0.005014	0.008156	0.396855	-0.541586	-0.317293	-0.669714	-1.316123	-77.755931	-117.639139
40582		9.499368	-0.038127	2.153332	-0.014439	0.001114	0.008754	0.396841	-0.541603	-0.317275	-0.669716	-1.321971	-77.756738	-117.636258
40583		9.500967	-0.060684	2.103243	-0.014439	0.001113	0.008755	0.396824	-0.541625	-0.317254	-0.669718	-1.328860	-77.758026	-117.633031
40584		9.499980	-0.043128	2.118987	-0.015541	-0.001800	0.006517	0.396792	-0.541655	-0.317240	-0.669720	-1.331066	-77.760728	-117.635412
40585		9.499722	-0.028553	2.099911	-0.017906	-0.007723	0.011598	0.396761	-0.541718	-0.317218	-0.669698	-1.347999	-77.767039	-117.623940
40586		9.500883	-0.048386	2.083302	-0.013055	-0.009362	0.007681	0.396723	-0.541773	-0.317220	-0.669675	-1.352593	-77.774150	-117.623113
40587		9.498427	-0.009794	2.148662	-0.018017	-0.003927	0.014596	0.396707	-0.541829	-0.317182	-0.669657	-1.377302	-77.778244	-117.603750
40588		9.524595	-0.031816	2.098035	-0.017820	-0.012520	0.011440	0.396672	-0.541905	-0.317169	-0.669622	-1.394968	-77.786977	-117.591210
40589		9.499107	0.000078	2.093794	-0.023805	-0.009945	0.011339	0.396620	-0.541987	-0.317132	-0.669604	-1.414800	-77.794562	-117.580232
40590		9.501294	-0.038742	2.061051	-0.023769	-0.013803	0.013123	0.396561	-0.542089	-0.317091	-0.669576	-1.440408	-77.804210	-117.564752
40591		9.501551	-0.040203	2.059839	-0.017786	-0.011539	0.008609	0.396514	-0.542160	-0.317084	-0.669549	-1.449700	-77.812745	-117.561030
40592		9.525273	-0.021697	2.074642	-0.012904	-0.017029	0.006470	0.396459	-0.542238	-0.317106	-0.669509	-1.450790	-77.824233	-117.563818
40593		9.551234	-0.055657	2.076610	-0.010574	-0.007245	-0.000391	0.396408	-0.542266	-0.317140	-0.669500	-1.431771	-77.830439	-117.584831
40594		9.575609	-0.068205	2.128939	-0.010552	-0.014021	0.005118	0.396366	-0.542324	-0.317171	-0.669463	-1.428036	-77.840127	-117.590228
40595		9.577372	-0.090350	2.077709	-0.015448	-0.006608	0.006369	0.396326	-0.542370	-0.317169	-0.669451	-1.429707	-77.845870	-117.592932
40596		9.600353	-0.069012	2.127641	-0.015447	-0.006609	0.006370	0.396287	-0.542415	-0.317165	-0.669439	-1.431570	-77.851289	-117.595430
40597		9.576654	-0.073743	2.092382	-0.014342	-0.003701	0.008611	0.396261	-0.542453	-0.317155	-0.669428	-1.438378	-77.855334	-117.592230
40598		9.576057	-0.072105	2.126791	-0.016823	0.003862	0.007457	0.396236	-0.542468	-0.317122	-0.669447	-1.442946	-77.854777	-117.593194
40599		9.574655	-0.038834	2.124443	-0.018038	0.004749	0.008216	0.396212	-0.542485	-0.317084	-0.669465	-1.450259	-77.853988	-117.591645
40600		9.527601	-0.078945	2.092792	-0.022839	0.010291	0.005582	0.396173	-0.542490	-0.317020	-0.669515	-1.453885	-77.849887	-117.597492
40601		9.526158	-0.045678	2.090666	-0.018019	0.002816	0.009108	0.396150	-0.542514	-0.316984	-0.669526	-1.463689	-77.850192	-117.593384
40602		9.502341	-0.079519	2.128002	-0.015731	0.008691	0.008812	0.396139	-0.542515	-0.316939	-0.669553	-1.471908	-77.846941	-117.590111
40603		9.501149	-0.033147	2.072920	-0.018034	0.004741	0.008219	0.396116	-0.542531	-0.316901	-0.669571	-1.479225	-77.846157	-117.588555
40604		9.525190	-0.046522	2.126682	-0.023952	0.004451	0.007069	0.396076	-0.542560	-0.316843	-0.669599	-1.489587	-77.845414	-117.587461
40605		9.526369	-0.082054	2.129854	-0.021583	0.005533	0.006608	0.396039	-0.542578	-0.316796	-0.669629	-1.494599	-77.844199	-117.590343
40606		9.550648	-0.082199	2.130678	-0.019199	0.004688	0.007036	0.396002	-0.542599	-0.316749	-0.669655	-1.500853	-77.843369	-117.591903
40607		9.573622	-0.047951	2.128906	-0.020429	0.007503	0.006908	0.395973	-0.542609	-0.316701	-0.669688	-1.505863	-77.841022	-117.594111
40608		9.599480	-0.098326	2.151170	-0.019213	0.006613	0.006149	0.395939	-0.542618	-0.316657	-0.669721	-1.508077	-77.838930	-117.599075
40609		9.548519	-0.035129	2.111637	-0.025270	0.013972	0.006227	0.395904	-0.542615	-0.316582	-0.669780	-1.513597	-77.832888	-117.603599
40610		9.549506	-0.070652	2.115594	-0.022885	0.013126	0.006655	0.395877	-0.542610	-0.316513	-0.669833	-1.519725	-77.827046	-117.606192
40611		9.548914	-0.055884	2.098210	-0.018120	0.011439	0.007509	0.395862	-0.542603	-0.316463	-0.669871	-1.524730	-77.822436	-117.607052
40612		9.523685	-0.055178	2.133203	-0.019225	0.008531	0.005265	0.395830	-0.542604	-0.316417	-0.669910	-1.525138	-77.819289	-117.613792
40613		9.500680	-0.078259	2.083317	-0.022804	0.008328	0.006488	0.395793	-0.542616	-0.316361	-0.669949	-1.530335	-77.816476	-117.617201
40614		9.499557	-0.060751	2.099974	-0.025137	0.008236	0.004116	0.395748	-0.542621	-0.316307	-0.669997	-1.528977	-77.813210	-117.627647
40615		9.524782	-0.079378	2.084948	-0.025090	0.002445	0.006778	0.395697	-0.542657	-0.316254	-0.670023	-1.536672	-77.813762	-117.629841
40616		9.525040	-0.096351	2.103696	-0.021509	0.002644	0.005558	0.395646	-0.542688	-0.316207	-0.670050	-1.540890	-77.814156	-117.634937
40617		9.548049	-0.061873	2.101977	-0.015639	0.008721	0.004050	0.395622	-0.542679	-0.316180	-0.670084	-1.535489	-77.811155	-117.644988
40618		9.573887	-0.112104	2.124037	-0.015593	0.002932	0.006710	0.395598	-0.542697	-0.316152	-0.670097	-1.540070	-77.811318	-117.645295
40619		9.572190	-0.062497	2.103460	-0.013225	0.008878	0.001644	0.395572	-0.542680	-0.316140	-0.670132	-1.526899	-77.808264	-117.661881
40620		9.523176	-0.064827	2.103710	-0.015666	0.012576	0.002281	0.395543	-0.542658	-0.316104	-0.670184	-1.517365	-77.802921	-117.677241
40621		9.571054	-0.061100	2.140088	-0.018077	0.012414	0.004690	0.395520	-0.542644	-0.316060	-0.670230	-1.514814	-77.797794	-117.685807
40622		9.573370	-0.101518	2.074838	-0.013301	0.008801	0.006427	0.395506	-0.542635	-0.316030	-0.670259	-1.514297	-77.794468	-117.690238
40623		9.522312	-0.021771	2.016454	0.004653	0.002105	0.003861	0.395526	-0.542608	-0.316085	-0.670243	-1.497252	-77.795258	-117.700308
40624		9.473420	-0.052863	2.087371	0.007098	0.003266	-0.001380	0.395532	-0.542568	-0.316153	-0.670240	-1.466200	-77.795340	-117.724371
40625		9.498039	-0.096591	2.177851	-0.010502	-0.000395	-0.010680	0.395458	-0.542557	-0.316201	-0.670270	-1.419490	-77.797770	-117.773677
40626		9.570518	-0.062313	2.142448	-0.029965	0.009821	0.008055	0.395410	-0.542578	-0.316111	-0.670323	-1.433312	-77.793792	-117.772532
40627		9.520021	0.013577	2.050118	-0.025421	0.010845	0.019534	0.395415	-0.542607	-0.316006	-0.670347	-1.474402	-77.789346	-117.740752
40628		9.545195	-0.006458	2.035385	-0.028922	0.005848	0.020579	0.395401	-0.542661	-0.315891	-0.670366	-1.520168	-77.787474	-117.706960
40629		9.498160	-0.076900	2.074385	-0.022841	-0.000505	0.017657	0.395388	-0.542719	-0.315822	-0.670359	-1.555580	-77.789548	-117.679478
40630		9.521174	-0.073010	2.143852	-0.021714	0.005324	0.016192	0.395378	-0.542756	-0.315742	-0.670373	-1.586787	-77.788142	-117.656680
40631		9.497338	-0.078325	2.109407	-0.010997	0.003007	0.016245	0.395398	-0.542777	-0.315709	-0.670359	-1.611427	-77.788222	-117.633276
40632		9.498043	-0.082258	2.074716	0.005854	-0.008511	0.012304	0.395433	-0.542796	-0.315763	-0.670297	-1.617649	-77.794697	-117.619010
40633		9.523442	-0.129595	2.129806	0.013167	-0.007943	0.000295	0.395448	-0.542781	-0.315876	-0.670248	-1.587030	-77.801303	-117.637978
40634		9.521295	-0.060690	2.123444	0.008536	-0.018770	0.002804	0.395437	-0.542819	-0.315981	-0.670174	-1.568038	-77.813970	-117.648864
40635		9.520968	-0.058356	2.156440	0.003660	-0.011377	0.004085	0.395433	-0.542840	-0.316059	-0.670123	-1.553116	-77.822481	-117.657344
40636		9.544781	-0.010191	2.100121	-0.001103	-0.014560	0.007839	0.395429	-0.542883	-0.316117	-0.670062	-1.551532	-77.832392	-117.654436
40637		9.519757	0.006670	2.114335	0.001263	-0.013472	0.007379	0.395426	-0.542921	-0.316182	-0.670003	-1.546868	-77.842052	-117.653827
40638		9.569443	0.005272	2.079481	0.001250	-0.011543	0.006495	0.395429	-0.542946	-0.316249	-0.669950	-1.538683	-77.850134	-117.655927
40639		9.544691	0.006290	2.112292	0.003644	-0.014316	0.007804	0.395433	-0.542982	-0.316322	-0.669883	-1.533836	-77.860270	-117.654109
40640		9.568734	0.009358	2.145877	0.006072	-0.011218	0.001676	0.395426	-0.542992	-0.316412	-0.669836	-1.509973	-77.868376	-117.670605
40641		9.545219	0.005637	2.109906	0.006011	-0.013229	0.007344	0.395437	-0.543020	-0.316493	-0.669770	-1.502445	-77.877896	-117.670143
40642		9.522010	-0.013975	2.092339	0.003751	-0.013236	0.000189	0.395415	-0.543042	-0.316580	-0.669724	-1.477472	-77.887303	-117.689509
40643		9.522516	-0.030096	2.109878	-0.001155	-0.006841	0.004304	0.395406	-0.543057	-0.316632	-0.669692	-1.465469	-77.893209	-117.697823
40644		9.523623	-0.048904	2.093020	-0.001038	-0.012558	0.002177	0.395384	-0.543084	-0.316703	-0.669649	-1.447180	-77.901987	-117.712016
40645		9.571478	-0.013062	2.089977	-0.004615	-0.012763	0.003402	0.395353	-0.543125	-0.316758	-0.669609	-1.435121	-77.911298	-117.722414
40646		9.547298	-0.014370	2.088625	-0.004688	-0.007974	0.003580	0.395332	-0.543147	-0.316802	-0.669582	-1.422819	-77.917479	-117.732899
40647		9.547435	-0.014773	2.087995	-0.007082	-0.005200	0.002272	0.395303	-0.543166	-0.316836	-0.669568	-1.408619	-77.922472	-117.746932
40648		9.522885	-0.000247	2.068471	-0.004716	-0.008981	0.006415	0.395289	-0.543196	-0.316874	-0.669533	-1.404067	-77.929220	-117.749608
40649		9.526045	-0.072181	2.038321	-0.010600	-0.008264	0.002435	0.395246	-0.543232	-0.316902	-0.669516	-1.392496	-77.935965	-117.763013
40650		9.500079	-0.036363	2.068850	-0.003373	-0.012645	-0.000195	0.395213	-0.543262	-0.316971	-0.669480	-1.371030	-77.944927	-117.781737
40651		9.573799	-0.049843	2.087344	-0.010556	-0.009192	0.000487	0.395162	-0.543298	-0.317006	-0.669464	-1.354230	-77.952228	-117.800462
40652		9.523628	-0.031321	2.136596	-0.026218	0.000449	0.006514	0.395101	-0.543343	-0.316949	-0.669490	-1.362345	-77.953700	-117.803519
40653		9.523614	-0.003148	2.065107	-0.023822	-0.002329	0.007823	0.395050	-0.543394	-0.316907	-0.669499	-1.372391	-77.956970	-117.802565
40654		9.526901	-0.091756	2.054090	-0.014419	0.000016	0.011640	0.395044	-0.543421	-0.316881	-0.669492	-1.387406	-77.958482	-117.790641
40655		9.551083	-0.075936	2.035499	0.002409	-0.009582	0.006794	0.395048	-0.543443	-0.316943	-0.669443	-1.380137	-77.965920	-117.792026
40656		9.598686	-0.083380	2.156861	0.003607	-0.013407	0.009750	0.395055	-0.543482	-0.317003	-0.669379	-1.380941	-77.975335	-117.785570
40657		9.526253	-0.089135	2.120552	-0.008291	-0.004321	0.003039	0.395026	-0.543502	-0.317029	-0.669367	-1.369354	-77.979812	-117.797636
40658		9.526365	-0.089835	2.120018	-0.015427	-0.006669	0.006379	0.394989	-0.543546	-0.317027	-0.669355	-1.371219	-77.985251	-117.799873
40659		9.525064	-0.040493	2.098171	-0.027221	-0.011117	0.005863	0.394907	-0.543629	-0.316996	-0.669349	-1.378510	-77.993582	-117.803728
40660		9.549691	-0.040765	2.097436	-0.027219	-0.011122	0.005865	0.394820	-0.543716	-0.316958	-0.669349	-1.386153	-78.001710	-117.808399
40661		9.524958	-0.040373	2.130507	-0.027259	-0.010202	0.007817	0.394747	-0.543800	-0.316920	-0.669342	-1.398680	-78.009489	-117.806922
40662		9.526276	-0.046619	2.060670	-0.021346	-0.009915	0.008960	0.394695	-0.543875	-0.316892	-0.669324	-1.413601	-78.016968	-117.799889
40663		9.550050	-0.028515	2.075861	-0.014166	-0.013368	0.008270	0.394654	-0.543944	-0.316903	-0.669287	-1.420080	-78.026554	-117.796926
40664		9.527111	-0.064902	2.076649	-0.008239	-0.015013	0.010295	0.394633	-0.544009	-0.316929	-0.669235	-1.428655	-78.036737	-117.788506
40665		9.526560	-0.047358	2.091223	-0.017628	-0.014417	0.002768	0.394562	-0.544080	-0.316945	-0.669211	-1.422319	-78.047003	-117.800669
40666		9.552398	-0.081697	2.092723	-0.012968	-0.012322	0.006624	0.394517	-0.544143	-0.316956	-0.669181	-1.424615	-78.055821	-117.802042
40667		9.553157	-0.085107	2.057202	-0.024844	-0.010048	0.005415	0.394443	-0.544218	-0.316932	-0.669176	-1.429272	-78.063546	-117.807196
40668		9.601310	-0.066252	2.072839	-0.024910	-0.010141	0.010201	0.394381	-0.544302	-0.316890	-0.669164	-1.447701	-78.071048	-117.799037
40669		9.577077	-0.068504	2.071723	-0.024938	-0.006274	0.008437	0.394322	-0.544369	-0.316850	-0.669163	-1.460358	-78.076568	-117.796069
40670		9.553626	-0.089173	2.054850	-0.019068	-0.005062	0.011526	0.394298	-0.544418	-0.316823	-0.669149	-1.476665	-78.080820	-117.784794
40671		9.528987	-0.075357	2.035712	-0.015510	-0.002916	0.009412	0.394273	-0.544457	-0.316805	-0.669141	-1.486345	-78.084402	-117.779349
40672		9.553455	-0.075683	2.035650	-0.011922	-0.004642	0.009063	0.394250	-0.544496	-0.316798	-0.669126	-1.493526	-78.088765	-117.775271
40673		9.528589	-0.075095	2.069511	-0.013120	-0.000810	0.006114	0.394225	-0.544518	-0.316793	-0.669126	-1.492738	-78.091189	-117.779124
40674		9.553885	-0.093743	2.053445	-0.010737	-0.006541	0.011131	0.394212	-0.544564	-0.316789	-0.669098	-1.505987	-78.096630	-117.767802
40675		9.553636	-0.078834	2.034678	-0.006041	-0.000480	0.008435	0.394214	-0.544574	-0.316801	-0.669083	-1.507427	-78.098831	-117.765232
40676		9.554290	-0.111745	2.071337	-0.005985	-0.003338	0.007366	0.394205	-0.544592	-0.316818	-0.669065	-1.506085	-78.102411	-117.766012
40677		9.553197	-0.078196	2.068705	-0.003662	-0.001323	0.008852	0.394213	-0.544602	-0.316838	-0.669043	-1.507359	-78.105088	-117.762220
40678		9.554026	-0.097521	2.052613	-0.000131	-0.000189	0.009571	0.394235	-0.544602	-0.316862	-0.669019	-1.509483	-78.106886	-117.755815
40679		9.505218	-0.100132	2.052007	-0.007248	0.000400	0.009203	0.394238	-0.544613	-0.316866	-0.669006	-1.513645	-78.108571	-117.751171
40680		9.577285	-0.064512	2.050496	-0.010845	-0.000829	0.013271	0.394243	-0.544639	-0.316849	-0.668990	-1.530280	-78.110525	-117.735798
40681		9.528495	-0.067491	2.049807	-0.008442	-0.000657	0.010854	0.394246	-0.544658	-0.316846	-0.668974	-1.539698	-78.112790	-117.726481
40682		9.552566	-0.051865	2.031777	-0.003755	0.002452	0.011875	0.394273	-0.544655	-0.316853	-0.668957	-1.547973	-78.112797	-117.714986
40683		9.553127	-0.085026	2.068760	-0.001338	0.000688	0.010340	0.394296	-0.544655	-0.316872	-0.668934	-1.551828	-78.114299	-117.707196
40684		9.553064	-0.085957	2.069009	-0.001366	0.004562	0.008575	0.394317	-0.544641	-0.316885	-0.668928	-1.551181	-78.113396	-117.704667
40685		9.576259	-0.051531	2.067358	-0.002535	0.004523	0.007391	0.394332	-0.544626	-0.316901	-0.668923	-1.547416	-78.112746	-117.705364
40686		9.576941	-0.070699	2.051899	-0.003757	0.007341	0.007277	0.394347	-0.544605	-0.316905	-0.668930	-1.544157	-78.110239	-117.706825
40687		9.576558	-0.085266	2.105447	-0.006159	0.007166	0.009695	0.394364	-0.544592	-0.316897	-0.668934	-1.548541	-78.108041	-117.701317
40688		9.574978	-0.035971	2.085505	-0.007420	0.010903	0.011533	0.394388	-0.544574	-0.316868	-0.668949	-1.559454	-78.103485	-117.690710
40689		9.576401	-0.073836	2.054307	-0.008496	0.007088	0.007327	0.394391	-0.544562	-0.316859	-0.668960	-1.558739	-78.101368	-117.691781
40690		9.551260	-0.073279	2.089393	-0.001524	0.013127	0.011789	0.394432	-0.544524	-0.316845	-0.668974	-1.564833	-78.095456	-117.682793
40691		9.527698	-0.079857	2.021169	-0.001418	0.007413	0.009648	0.394463	-0.544501	-0.316854	-0.668970	-1.566345	-78.093116	-117.677444
40692		9.527813	-0.096740	2.040298	0.002154	0.007625	0.008416	0.394495	-0.544467	-0.316874	-0.668970	-1.560525	-78.090296	-117.678088
40693		9.502446	-0.079981	2.056719	-0.001417	0.007412	0.009649	0.394526	-0.544444	-0.316883	-0.668966	-1.562036	-78.087957	-117.672740
40694		9.527243	-0.082464	2.023211	-0.003741	0.005399	0.008161	0.394543	-0.544429	-0.316889	-0.668965	-1.561561	-78.086536	-117.670916
40695		9.527415	-0.099441	2.042027	-0.008468	0.003212	0.009090	0.394546	-0.544433	-0.316883	-0.668963	-1.565906	-78.086611	-117.666800
40696		9.550651	-0.065365	2.040374	-0.004975	0.005260	0.011764	0.394573	-0.544427	-0.316876	-0.668956	-1.576349	-78.085219	-117.654461
40697		9.574404	-0.063405	2.075603	-0.003767	0.004378	0.010997	0.394597	-0.544420	-0.316879	-0.668945	-1.583086	-78.084595	-117.645147
40698		9.574769	-0.066957	2.041944	-0.003882	0.012024	0.012258	0.394642	-0.544385	-0.316866	-0.668954	-1.591328	-78.079052	-117.633481
40699		9.573735	-0.049629	2.059039	-0.003803	0.010188	0.008353	0.394666	-0.544355	-0.316865	-0.668964	-1.590469	-78.075143	-117.631951
40700		9.550202	-0.085881	2.061907	-0.003817	0.007230	0.012069	0.394700	-0.544338	-0.316859	-0.668961	-1.599402	-78.072497	-117.620165
40701		9.573882	-0.054292	2.026428	-0.008631	0.013708	0.011425	0.394728	-0.544311	-0.316826	-0.668982	-1.609366	-78.066522	-117.610401
40702		9.573587	-0.055470	2.027786	-0.007435	0.014763	0.009777	0.394761	-0.544270	-0.316803	-0.669007	-1.613527	-78.059513	-117.604901
40703		9.548065	-0.038980	2.044969	-0.011016	0.016485	0.010128	0.394781	-0.544236	-0.316760	-0.669043	-1.621115	-78.051968	-117.598962
40704		9.547939	-0.056269	2.065021	-0.014598	0.018207	0.010480	0.394792	-0.544208	-0.316692	-0.669091	-1.633359	-78.043339	-117.591533
40705		9.524311	-0.062768	1.997492	-0.006247	0.017750	0.007250	0.394818	-0.544156	-0.316671	-0.669129	-1.630320	-78.035117	-117.593662
40706		9.571632	-0.057624	2.068588	-0.008628	0.013698	0.011429	0.394845	-0.544127	-0.316636	-0.669152	-1.639880	-78.028806	-117.584370
40707		9.547538	-0.061938	2.035032	-0.013327	0.012531	0.009521	0.394851	-0.544110	-0.316595	-0.669182	-1.647429	-78.023535	-117.579823
40708		9.521454	-0.043066	2.086489	-0.010972	0.015558	0.008179	0.394869	-0.544073	-0.316560	-0.669218	-1.650080	-78.016194	-117.578359
40709		9.571585	-0.079332	2.056378	-0.010911	0.010768	0.007987	0.394874	-0.544055	-0.316535	-0.669242	-1.652235	-78.011958	-117.577912
40710		9.545922	-0.046495	2.054791	-0.007349	0.012916	0.005877	0.394889	-0.544015	-0.316523	-0.669270	-1.647026	-78.006172	-117.582329
40711		9.570054	-0.046464	2.056396	-0.007349	0.012915	0.005877	0.394900	-0.543980	-0.316511	-0.669299	-1.641290	-78.000741	-117.587861
40712		9.545348	-0.047701	2.057428	-0.010870	0.016680	0.000559	0.394897	-0.543925	-0.316497	-0.669352	-1.622924	-77.992806	-117.607399
40713		9.544414	-0.046076	2.093352	-0.013333	0.014456	0.008645	0.394903	-0.543900	-0.316454	-0.669389	-1.627964	-77.986447	-117.605420
40714		9.568693	-0.062509	2.113538	-0.015706	0.015297	0.008228	0.394902	-0.543873	-0.316403	-0.669436	-1.631591	-77.979188	-117.606315
40715		9.545145	-0.052591	2.026732	-0.001286	0.002707	0.004678	0.394909	-0.543858	-0.316434	-0.669429	-1.619953	-77.979622	-117.614331
40716		9.519653	-0.019273	2.024435	0.006976	0.006020	0.004481	0.394945	-0.543810	-0.316490	-0.669421	-1.601274	-77.977708	-117.624244
40717		9.469891	-0.048276	2.129764	-0.007091	0.003553	-0.004089	0.394908	-0.543789	-0.316524	-0.669443	-1.569320	-77.977795	-117.656431
40718		9.566782	-0.043004	2.166154	-0.024886	0.004526	-0.003610	0.394817	-0.543805	-0.316486	-0.669501	-1.549213	-77.977227	-117.688708
40719		9.567418	-0.016419	2.061576	-0.035910	0.018016	0.010248	0.394773	-0.543816	-0.316356	-0.669580	-1.571268	-77.968803	-117.682559
40720		9.520205	-0.026558	1.958868	-0.021698	0.011930	0.015592	0.394775	-0.543828	-0.316267	-0.669611	-1.601277	-77.963585	-117.660418
40721		9.496205	-0.077143	2.014211	-0.020306	0.001589	0.009639	0.394745	-0.543862	-0.316224	-0.669622	-1.613958	-77.964579	-117.654711
40722		9.496328	-0.140332	2.121864	-0.015424	-0.006709	0.006366	0.394703	-0.543909	-0.316218	-0.669610	-1.616647	-77.970181	-117.656898
40723		9.422639	-0.095610	2.065300	-0.020374	0.001472	0.014431	0.394689	-0.543951	-0.316161	-0.669611	-1.642260	-77.971163	-117.638009
40724		9.448428	-0.100955	1.996139	-0.011849	-0.015267	0.011483	0.394663	-0.544031	-0.316168	-0.669559	-1.660166	-77.981774	-117.622606
40725		9.471828	-0.080556	2.045022	0.000228	-0.027918	0.005547	0.394629	-0.544117	-0.316263	-0.669465	-1.652380	-77.999734	-117.625797
40726		9.521185	-0.079550	2.043202	0.001427	-0.026862	0.003901	0.394592	-0.544193	-0.316361	-0.669378	-1.638830	-78.016819	-117.634609
40727		9.545526	-0.076868	2.075487	0.006165	-0.026614	0.003858	0.394570	-0.544260	-0.316478	-0.669282	-1.622933	-78.034059	-117.642613
40728		9.570254	-0.059984	2.055115	0.008589	-0.023472	-0.002271	0.394540	-0.544300	-0.316610	-0.669204	-1.589229	-78.049304	-117.667582
40729		9.569777	-0.025284	2.050506	0.010935	-0.025345	0.000981	0.394523	-0.544349	-0.316748	-0.669109	-1.562615	-78.065861	-117.683746
40730		9.570207	-0.025170	2.048502	0.013196	-0.016614	0.001794	0.394523	-0.544369	-0.316865	-0.669037	-1.537595	-78.077347	-117.698472
40731		9.595191	-0.040433	2.065451	0.010881	-0.020561	0.001182	0.394514	-0.544402	-0.316993	-0.668954	-1.511106	-78.091158	-117.714540
40732		9.594756	-0.022218	2.079960	0.007170	-0.012225	0.005644	0.394524	-0.544419	-0.317079	-0.668894	-1.497199	-78.099743	-117.719889
40733		9.571143	-0.025749	2.044116	0.003554	-0.009590	0.007953	0.394536	-0.544440	-0.317142	-0.668840	-1.492479	-78.107167	-117.717998
40734		9.546934	-0.027055	2.042861	0.007123	-0.009376	0.006721	0.394556	-0.544451	-0.317218	-0.668784	-1.483330	-78.114220	-117.718526
40735		9.572278	-0.045107	2.026290	0.008319	-0.008317	0.005072	0.394573	-0.544454	-0.317302	-0.668731	-1.467936	-78.120957	-117.724752
40736		9.547054	-0.011656	2.022947	0.008310	-0.006379	0.004192	0.394595	-0.544443	-0.317389	-0.668686	-1.448791	-78.126136	-117.733941
40737		9.547620	-0.043991	2.058990	0.005983	-0.008386	0.002701	0.394598	-0.544447	-0.317472	-0.668641	-1.428254	-78.132946	-117.746790
40738		9.523370	-0.044792	2.057943	0.005973	-0.006448	0.001822	0.394600	-0.544445	-0.317549	-0.668606	-1.406324	-78.138478	-117.761608
40739		9.523830	-0.031292	2.004545	0.003536	-0.005715	0.006196	0.394612	-0.544450	-0.317609	-0.668566	-1.396511	-78.143708	-117.764932
40740		9.524390	-0.063810	2.040628	0.007152	-0.008354	0.003888	0.394614	-0.544457	-0.317686	-0.668522	-1.378579	-78.150326	-117.775745
40741		9.476517	-0.083762	2.023055	0.008358	-0.009234	0.003118	0.394624	-0.544459	-0.317778	-0.668471	-1.357809	-78.157613	-117.787441
40742		9.525301	-0.066499	2.004425	0.007163	-0.010294	0.004768	0.394624	-0.544479	-0.317851	-0.668420	-1.344678	-78.165562	-117.794127
40743		9.550449	-0.068496	1.969283	0.005969	-0.011355	0.006419	0.394634	-0.544499	-0.317929	-0.668361	-1.334406	-78.174019	-117.796496
40744		9.572552	-0.027059	2.069419	-0.010573	-0.014103	0.005077	0.394586	-0.544559	-0.317957	-0.668327	-1.329824	-78.183838	-117.803639
40745		9.547043	-0.008445	2.118857	-0.022706	-0.001541	0.015805	0.394565	-0.544618	-0.317895	-0.668321	-1.361054	-78.186546	-117.780392
40746		9.547901	0.000978	2.031484	-0.022740	-0.000631	0.017762	0.394556	-0.544673	-0.317827	-0.668313	-1.397417	-78.188342	-117.751421
40747		9.525527	-0.040802	1.964387	-0.010880	-0.002926	0.018959	0.394576	-0.544718	-0.317799	-0.668278	-1.430628	-78.191794	-117.719228
40748		9.550974	-0.076181	1.966455	0.008198	-0.008558	0.014652	0.394627	-0.544734	-0.317857	-0.668207	-1.441492	-78.198176	-117.698378
40749		9.549795	-0.086515	2.087312	0.007065	-0.009504	0.011512	0.394660	-0.544754	-0.317922	-0.668140	-1.444498	-78.205499	-117.686540
40750		9.526052	-0.090498	2.051842	-0.003634	-0.005237	0.010624	0.394667	-0.544779	-0.317942	-0.668107	-1.451159	-78.210137	-117.677676
40751		9.525877	-0.075525	2.033276	-0.008436	0.001249	0.009989	0.394670	-0.544791	-0.317938	-0.668097	-1.458133	-78.211323	-117.670858
40752		9.574482	-0.059205	2.015485	-0.004848	-0.002419	0.010514	0.394680	-0.544807	-0.317950	-0.668072	-1.464755	-78.214289	-117.662353
40753		9.549558	-0.058621	2.049619	-0.001334	0.002587	0.009474	0.394702	-0.544800	-0.317969	-0.668056	-1.466154	-78.214716	-117.657073
40754		9.549317	-0.043514	2.031405	-0.001324	0.000646	0.010354	0.394726	-0.544798	-0.317988	-0.668034	-1.470057	-78.215900	-117.649195
40755		9.548546	-0.026177	2.047734	0.000996	0.004591	0.010964	0.394764	-0.544782	-0.318006	-0.668017	-1.474073	-78.215157	-117.639879
40756		9.573575	-0.045172	2.032356	-0.001428	0.003380	0.016222	0.394810	-0.544781	-0.318003	-0.667992	-1.493545	-78.214713	-117.616336
40757		9.573461	-0.046626	2.032863	-0.002615	0.007228	0.013277	0.394849	-0.544767	-0.317997	-0.667983	-1.505785	-78.212425	-117.600733
40758		9.548897	-0.048752	2.033260	-0.007387	0.007893	0.015284	0.394881	-0.544763	-0.317966	-0.667982	-1.525887	-78.209455	-117.580412
40759		9.549427	-0.068766	2.017970	-0.008590	0.008771	0.016055	0.394916	-0.544760	-0.317930	-0.667981	-1.549044	-78.206238	-117.557152
40760		9.574357	-0.088313	2.002997	-0.008614	0.007739	0.018893	0.394958	-0.544765	-0.317885	-0.667973	-1.581249	-78.203393	-117.525038
40761		9.549145	-0.072479	2.019173	-0.006155	0.001186	0.017156	0.394991	-0.544784	-0.317869	-0.667946	-1.606585	-78.204497	-117.498127
40762		9.548392	-0.056127	2.035441	-0.010959	0.002761	0.021120	0.395034	-0.544809	-0.317827	-0.667921	-1.645310	-78.204212	-117.459413
40763		9.572518	-0.041647	2.017859	-0.008636	0.006701	0.021733	0.395084	-0.544821	-0.317779	-0.667903	-1.684184	-78.202075	-117.420124
40764		9.548860	-0.078926	2.020281	-0.014499	0.003574	0.019521	0.395115	-0.544847	-0.317729	-0.667888	-1.720921	-78.201326	-117.385154
40765		9.547768	-0.030542	1.999950	-0.012125	0.002722	0.019937	0.395144	-0.544877	-0.317682	-0.667869	-1.757184	-78.201488	-117.350575
40766		9.524144	-0.067606	2.002156	-0.003820	0.003175	0.018652	0.395187	-0.544889	-0.317661	-0.667844	-1.785322	-78.201214	-117.320347
40767		9.547815	-0.050262	2.018757	-0.002550	0.000477	0.013967	0.395219	-0.544898	-0.317667	-0.667815	-1.799924	-78.202762	-117.302290
40768		9.572334	-0.066949	2.037594	-0.000159	0.002601	0.010666	0.395253	-0.544887	-0.317687	-0.667794	-1.804460	-78.202838	-117.292656
40769		9.547880	-0.068675	2.037455	-0.001354	0.001538	0.012317	0.395284	-0.544888	-0.317700	-0.667769	-1.813765	-78.203807	-117.279311
40770		9.547656	-0.053747	2.019420	-0.006104	0.005179	0.010608	0.395297	-0.544885	-0.317688	-0.667768	-1.821607	-78.202565	-117.271179
40771		9.571312	-0.035929	2.036156	-0.008429	0.001237	0.009996	0.395300	-0.544897	-0.317684	-0.667759	-1.828628	-78.203748	-117.264309
40772		9.571390	-0.053401	2.054792	-0.012068	0.004780	0.014268	0.395311	-0.544912	-0.317645	-0.667759	-1.849543	-78.202611	-117.245964
40773		9.571163	-0.038767	2.036808	-0.010833	0.002992	0.011539	0.395316	-0.544925	-0.317626	-0.667754	-1.862021	-78.202760	-117.234926
40774		9.546679	-0.040592	2.036815	-0.003731	0.004324	0.011025	0.395336	-0.544920	-0.317624	-0.667748	-1.868918	-78.201949	-117.226328
40775		9.547122	-0.043768	2.002784	-0.002502	0.004479	0.007417	0.395351	-0.544906	-0.317640	-0.667742	-1.865187	-78.201323	-117.226973
40776		9.547171	-0.060444	2.021525	0.001098	0.003784	0.004223	0.395360	-0.544885	-0.317671	-0.667740	-1.851946	-78.201038	-117.236419
40777		9.547225	-0.077070	2.040225	-0.001300	0.003600	0.006645	0.395375	-0.544869	-0.317695	-0.667732	-1.845490	-78.200929	-117.239143
40778		9.498171	-0.062772	2.021704	-0.006049	0.007242	0.004937	0.395373	-0.544850	-0.317696	-0.667749	-1.836582	-78.198543	-117.248068
40779		9.523162	-0.081232	2.006313	-0.003659	0.000566	0.007989	0.395381	-0.544851	-0.317715	-0.667734	-1.835428	-78.200147	-117.246757
40780		9.546882	-0.063239	2.022803	-0.007225	0.000353	0.009225	0.395387	-0.544858	-0.317721	-0.667722	-1.839003	-78.201441	-117.242186
40781		9.546974	-0.080378	2.041271	-0.006062	0.002322	0.009533	0.395397	-0.544861	-0.317724	-0.667712	-1.843305	-78.202011	-117.236709
40782		9.546815	-0.065343	2.023052	-0.006056	0.000380	0.010412	0.395401	-0.544876	-0.317721	-0.667699	-1.851427	-78.203567	-117.228572
40783		9.546792	-0.066464	2.023124	-0.008426	0.001230	0.009998	0.395404	-0.544888	-0.317717	-0.667690	-1.858458	-78.204754	-117.221691
40784		9.571174	-0.066963	2.023541	-0.007224	0.000351	0.009227	0.395401	-0.544900	-0.317716	-0.667682	-1.862340	-78.206232	-117.218279
40785		9.571268	-0.084106	2.041964	-0.003689	0.001469	0.009949	0.395417	-0.544902	-0.317727	-0.667665	-1.866503	-78.207282	-117.211555
40786		9.571096	-0.069257	2.023836	-0.008489	0.003039	0.013916	0.395430	-0.544917	-0.317701	-0.667657	-1.884972	-78.207243	-117.194327
40787		9.571787	-0.104981	2.026390	-0.010801	0.004020	0.008706	0.395427	-0.544923	-0.317687	-0.667661	-1.889574	-78.206856	-117.191318
40788		9.571545	-0.089965	2.008619	-0.007303	0.007985	0.010509	0.395446	-0.544908	-0.317673	-0.667669	-1.895877	-78.203792	-117.184368
40789		9.570864	-0.088900	2.043655	-0.003726	0.004313	0.011030	0.395471	-0.544902	-0.317675	-0.667658	-1.902769	-78.203193	-117.174877
40790		9.522609	-0.109524	2.027243	-0.002556	0.004339	0.012217	0.395504	-0.544891	-0.317681	-0.667645	-1.910740	-78.202127	-117.163107
40791		9.546289	-0.091804	2.043989	-0.002519	0.001491	0.011137	0.395528	-0.544892	-0.317693	-0.667624	-1.917490	-78.203140	-117.153055
40792		9.521874	-0.093562	2.043629	-0.004879	-0.001543	0.012480	0.395538	-0.544913	-0.317692	-0.667601	-1.930126	-78.205751	-117.139762
40793		9.546163	-0.078187	2.025672	-0.008455	0.002128	0.011960	0.395549	-0.544926	-0.317681	-0.667590	-1.942479	-78.206383	-117.127460
40794		9.545398	-0.045140	2.023514	-0.010815	-0.000906	0.013303	0.395555	-0.544953	-0.317663	-0.667572	-1.960346	-78.208426	-117.110819
40795		9.569866	-0.062024	2.042317	-0.001352	0.003456	0.011447	0.395585	-0.544946	-0.317675	-0.667555	-1.967103	-78.208306	-117.100078
40796		9.569851	-0.079326	2.061112	-0.001388	0.006301	0.012529	0.395622	-0.544932	-0.317673	-0.667545	-1.977469	-78.206360	-117.086314
40797		9.521591	-0.099900	2.044647	-0.002517	0.001486	0.011139	0.395645	-0.544933	-0.317685	-0.667524	-1.984234	-78.207373	-117.076246
40798		9.545929	-0.100533	2.045263	-0.008457	0.004067	0.011084	0.395648	-0.544943	-0.317663	-0.667525	-1.995199	-78.206845	-117.067063
40799		9.545132	-0.067357	2.043349	-0.008452	0.002123	0.011962	0.395659	-0.544955	-0.317652	-0.667514	-2.007563	-78.207477	-117.054750
40800		9.545726	-0.087081	2.027367	-0.009648	0.001057	0.013614	0.395673	-0.544973	-0.317634	-0.667500	-2.025085	-78.208350	-117.037748
40801		9.520695	-0.070737	2.043040	-0.013148	-0.002906	0.011809	0.395662	-0.545011	-0.317617	-0.667483	-2.040214	-78.211863	-117.025359
40802		9.545847	-0.105958	2.045369	-0.006046	-0.001578	0.011296	0.395668	-0.545030	-0.317620	-0.667463	-2.048942	-78.214339	-117.015935
40803		9.545238	-0.088935	2.061347	-0.003707	-0.001529	0.013671	0.395692	-0.545047	-0.317627	-0.667431	-2.063646	-78.217025	-116.998453
40804		9.569133	-0.087432	2.095922	-0.003646	-0.003335	0.009751	0.395700	-0.545065	-0.317646	-0.667403	-2.068837	-78.220630	-116.991001
40805		9.570356	-0.108839	2.045064	-0.002449	-0.002270	0.008100	0.395708	-0.545074	-0.317674	-0.667378	-2.067610	-78.223854	-116.989058
40806		9.545191	-0.059599	2.024117	-0.003653	0.000551	0.007996	0.395711	-0.545078	-0.317686	-0.667366	-2.067150	-78.225322	-116.988082
40807		9.520993	-0.109359	2.078729	-0.001283	-0.000303	0.008410	0.395726	-0.545079	-0.317713	-0.667344	-2.065911	-78.227413	-116.985470
40808		9.545337	-0.093399	2.060691	-0.002422	-0.001230	0.005262	0.395729	-0.545075	-0.317749	-0.667329	-2.055954	-78.229706	-116.991971
40809		9.522124	-0.098916	1.990928	0.010600	-0.009358	0.010275	0.395768	-0.545085	-0.317829	-0.667259	-2.053924	-78.236943	-116.983211
40810		9.497852	-0.083775	1.971245	0.010690	-0.012066	0.004395	0.395785	-0.545093	-0.317929	-0.667195	-2.035869	-78.245513	-116.990640
40811		9.521601	-0.110970	2.075860	0.001366	-0.015107	-0.006183	0.395735	-0.545114	-0.318034	-0.667157	-1.994368	-78.256376	-117.027601
40812		9.593276	-0.070486	2.142654	-0.022443	-0.004908	-0.001600	0.395655	-0.545151	-0.318029	-0.667177	-1.977370	-78.260881	-117.052950
40813		9.619809	-0.079991	2.005180	-0.038115	0.005316	0.016094	0.395604	-0.545218	-0.317901	-0.667213	-2.017861	-78.259601	-117.029269
40814		9.546188	-0.019256	1.931352	-0.028668	0.004742	0.018832	0.395576	-0.545277	-0.317790	-0.667234	-2.060315	-78.258495	-116.999839
40815		9.521506	-0.084412	2.038737	-0.022664	-0.003537	0.016720	0.395556	-0.545344	-0.317730	-0.667221	-2.094555	-78.262265	-116.973502
40816		9.546108	-0.134265	2.093929	-0.017938	0.002531	0.014037	0.395552	-0.545376	-0.317679	-0.667221	-2.119775	-78.262385	-116.953421
40817		9.521472	-0.104064	2.057343	-0.015575	0.005564	0.012697	0.395552	-0.545392	-0.317635	-0.667229	-2.137955	-78.261025	-116.939338
40818		9.522584	-0.142065	2.025340	-0.006071	0.001250	0.012386	0.395560	-0.545406	-0.317625	-0.667217	-2.149836	-78.261965	-116.927647
40819		9.547019	-0.142455	2.025493	-0.005924	-0.005195	0.003457	0.395538	-0.545424	-0.317660	-0.667199	-2.138133	-78.266962	-116.938438
40820		9.521511	-0.090724	2.038439	-0.003549	-0.009939	0.005624	0.395518	-0.545458	-0.317701	-0.667163	-2.131972	-78.274457	-116.943069
40821		9.545617	-0.104754	2.090733	-0.002357	-0.006926	0.003096	0.395502	-0.545474	-0.317752	-0.667135	-2.117384	-78.280452	-116.954719
40822		9.594447	-0.071707	2.054177	0.001207	-0.006711	0.001856	0.395490	-0.545483	-0.317812	-0.667106	-2.099454	-78.286219	-116.968488
40823		9.546328	-0.090984	2.036833	0.002400	-0.003698	-0.000672	0.395479	-0.545474	-0.317883	-0.667087	-2.071379	-78.290443	-116.991128
40824		9.570809	-0.090292	2.036836	0.005964	-0.003484	-0.001912	0.395471	-0.545456	-0.317963	-0.667068	-2.038751	-78.294431	-117.017245
40825		9.570862	-0.090176	2.036594	0.005907	-0.001684	0.002011	0.395482	-0.545437	-0.318034	-0.667044	-2.015850	-78.297442	-117.032548
40826		9.545866	-0.056365	2.033810	0.003545	-0.004721	0.003353	0.395491	-0.545431	-0.318101	-0.667011	-1.998681	-78.301814	-117.042776
40827		9.570962	-0.090510	2.036109	-0.001198	0.000877	0.000775	0.395482	-0.545415	-0.318147	-0.667007	-1.976167	-78.303382	-117.061841
40828		9.546000	-0.072928	2.051771	-0.003558	-0.004105	0.002994	0.395458	-0.545428	-0.318181	-0.666995	-1.961435	-78.307591	-117.075909
40829		9.571090	-0.107225	2.054082	-0.004762	0.000662	0.002014	0.395444	-0.545421	-0.318213	-0.666994	-1.944401	-78.309255	-117.091464
40830		9.570480	-0.089319	2.070343	-0.004790	0.001562	0.003976	0.395429	-0.545417	-0.318231	-0.666997	-1.931759	-78.310145	-117.103793
40831		9.571493	-0.110230	2.020139	-0.007193	0.007206	0.003771	0.395425	-0.545397	-0.318236	-0.667014	-1.920365	-78.308026	-117.115011
40832		9.546380	-0.092873	2.036505	-0.007161	0.004360	0.002687	0.395411	-0.545381	-0.318249	-0.667028	-1.905011	-78.307145	-117.130316
40833		9.545626	-0.059104	2.034858	-0.010781	0.005944	0.007850	0.395408	-0.545379	-0.318234	-0.667039	-1.907079	-78.305671	-117.129886
40834		9.521535	-0.046408	1.982469	-0.008418	0.008980	0.006508	0.395410	-0.545362	-0.318219	-0.667059	-1.905537	-78.302386	-117.132448
40835		9.521478	-0.063218	2.001285	-0.013061	0.002153	0.002430	0.395377	-0.545368	-0.318218	-0.667074	-1.894271	-78.303185	-117.146968
40836		9.521495	-0.079924	2.019732	-0.009523	0.001322	0.004029	0.395354	-0.545375	-0.318220	-0.667081	-1.886789	-78.304288	-117.156506
40837		9.595738	-0.083205	1.952027	-0.008327	0.002390	0.002378	0.395334	-0.545371	-0.318235	-0.667090	-1.872641	-78.304951	-117.171199
40838		9.570252	-0.096135	2.039187	-0.010723	0.004142	0.003928	0.395311	-0.545369	-0.318229	-0.667107	-1.864633	-78.304377	-117.181917
40839		9.593330	-0.076065	2.091110	-0.026187	0.015823	0.004406	0.395270	-0.545359	-0.318152	-0.667176	-1.865121	-78.297309	-117.192114
40840		9.569671	-0.081727	2.023336	-0.025016	0.015841	0.005595	0.395238	-0.545345	-0.318076	-0.667243	-1.867637	-78.289875	-117.199346
40841		9.545460	-0.085634	1.990118	-0.015661	0.017962	0.014215	0.395262	-0.545322	-0.318003	-0.667282	-1.888997	-78.281399	-117.182069
40842		9.545164	-0.070575	1.973037	-0.006019	0.007218	0.004964	0.395265	-0.545303	-0.318004	-0.667296	-1.882170	-78.279090	-117.188457
40843		9.544616	-0.117975	2.062767	-0.003704	0.002324	0.011927	0.395289	-0.545305	-0.318009	-0.667278	-1.891768	-78.279612	-117.176194
40844		9.543953	-0.100659	2.079257	-0.009551	0.004158	0.005117	0.395273	-0.545303	-0.318004	-0.667291	-1.885535	-78.278986	-117.184348
40845		9.496144	-0.122571	2.028473	-0.016652	0.008661	0.003008	0.395242	-0.545295	-0.317977	-0.667329	-1.877361	-78.276047	-117.197813
40846		9.543670	-0.069485	2.043687	-0.011857	-0.000675	0.002531	0.395210	-0.545306	-0.317986	-0.667335	-1.865869	-78.278135	-117.211630
40847		9.519265	-0.070521	2.043291	-0.011885	0.000221	0.004494	0.395184	-0.545319	-0.317987	-0.667339	-1.859826	-78.280001	-117.220129
40848		9.568705	-0.088570	2.027612	-0.010685	-0.004546	0.005468	0.395158	-0.545344	-0.318000	-0.667327	-1.855358	-78.284182	-117.226019
40849		9.544364	-0.089813	2.026898	-0.008348	-0.002557	0.006968	0.395146	-0.545364	-0.318012	-0.667313	-1.854362	-78.287591	-117.227294
40850		9.543812	-0.056464	2.024526	-0.010767	-0.003804	0.012232	0.395137	-0.545404	-0.317997	-0.667292	-1.870741	-78.291508	-117.213419
40851		9.543835	-0.057910	2.024373	-0.015529	0.000741	0.012500	0.395128	-0.545436	-0.317963	-0.667288	-1.888855	-78.292925	-117.199380
40852		9.568880	-0.093237	2.026574	-0.017808	-0.004987	0.007950	0.395095	-0.545481	-0.317947	-0.667278	-1.897268	-78.297367	-117.195904
40853		9.544540	-0.078540	2.007477	-0.013076	-0.004748	0.007897	0.395069	-0.545518	-0.317945	-0.667264	-1.901764	-78.302014	-117.194337
40854		9.569047	-0.079159	2.007322	-0.015440	-0.005843	0.008362	0.395043	-0.545559	-0.317940	-0.667248	-1.908049	-78.306808	-117.191239
40855		9.568569	-0.062029	2.023060	-0.014271	-0.003877	0.008675	0.395018	-0.545597	-0.317931	-0.667237	-1.915308	-78.310941	-117.187550
40856		9.569178	-0.065171	1.988257	-0.016636	-0.003026	0.008266	0.394980	-0.545639	-0.317907	-0.667236	-1.922812	-78.314399	-117.186045
40857		9.569259	-0.066376	1.987825	-0.013100	-0.005806	0.010737	0.394962	-0.545685	-0.317899	-0.667213	-1.935298	-78.319597	-117.176333
40858		9.544912	-0.068108	1.987131	-0.013128	-0.001019	0.010953	0.394951	-0.545714	-0.317879	-0.667205	-1.947783	-78.321780	-117.166919
40859		9.568839	-0.066827	2.021628	-0.010707	-0.005608	0.008310	0.394931	-0.545751	-0.317885	-0.667184	-1.952169	-78.326911	-117.164078
40860		9.569497	-0.069981	1.986555	-0.016632	-0.006925	0.010016	0.394897	-0.545804	-0.317869	-0.667168	-1.963677	-78.332425	-117.157672
40861		9.569588	-0.054854	1.967749	-0.014240	-0.004779	0.006715	0.394864	-0.545843	-0.317866	-0.667158	-1.965594	-78.337112	-117.159419
40862		9.544734	-0.054207	2.001410	-0.008341	-0.004518	0.007846	0.394852	-0.545870	-0.317877	-0.667137	-1.968315	-78.341392	-117.157103
40863		9.569778	-0.072741	1.985102	-0.007119	-0.004338	0.004231	0.394831	-0.545889	-0.317904	-0.667122	-1.959215	-78.345875	-117.165934
40864		9.544953	-0.071811	2.018650	-0.009482	-0.007381	0.005570	0.394809	-0.545919	-0.317929	-0.667098	-1.954970	-78.351652	-117.170247
40865		9.569995	-0.057859	1.965688	-0.008313	-0.005413	0.005883	0.394788	-0.545947	-0.317950	-0.667078	-1.951233	-78.356718	-117.174300
40866		9.570061	-0.058641	1.965341	-0.010705	-0.001720	0.006566	0.394769	-0.545965	-0.317952	-0.667073	-1.950050	-78.359313	-117.177235
40867		9.594508	-0.042856	1.947158	-0.008339	-0.004522	0.007848	0.394756	-0.545993	-0.317965	-0.667051	-1.951702	-78.363830	-117.175801
40868		9.570207	-0.076768	1.982880	-0.002466	-0.003368	0.010942	0.394772	-0.546007	-0.317988	-0.667019	-1.958067	-78.367297	-117.165936
40869		9.570734	-0.063510	1.930052	-0.002468	0.000528	0.009196	0.394788	-0.546009	-0.318007	-0.666999	-1.959628	-78.368896	-117.161160
40870		9.570212	-0.078760	1.982778	-0.007197	0.000286	0.009253	0.394792	-0.546016	-0.318012	-0.666989	-1.962837	-78.370206	-117.157166
40871		9.618430	-0.044608	1.981693	-0.008418	0.003998	0.011123	0.394803	-0.546021	-0.318000	-0.666984	-1.972840	-78.369780	-117.147252
40872		9.593395	-0.044426	2.016276	-0.009639	0.005762	0.013867	0.394821	-0.546026	-0.317969	-0.666984	-1.991258	-78.368058	-117.129982
40873		9.593801	-0.031615	1.964097	-0.008443	0.004888	0.013089	0.394840	-0.546031	-0.317949	-0.666978	-2.006653	-78.367082	-117.114577
40874		9.617562	-0.046696	2.017716	-0.001324	0.007280	0.009730	0.394877	-0.546003	-0.317961	-0.666973	-2.007390	-78.364349	-117.109018
40875		9.593475	-0.066374	2.002086	-0.001375	0.012958	0.011915	0.394925	-0.545965	-0.317952	-0.666981	-2.014675	-78.358775	-117.097759
40876		9.568810	-0.067984	2.002918	-0.003739	0.011862	0.012380	0.394962	-0.545937	-0.317931	-0.666991	-2.025209	-78.353634	-117.085456
40877		9.569121	-0.071106	1.969501	-0.001348	0.010116	0.010824	0.395001	-0.545907	-0.317931	-0.666993	-2.029710	-78.349708	-117.077023
40878		9.543957	-0.054485	1.986439	-0.002568	0.011878	0.013568	0.395051	-0.545876	-0.317915	-0.666997	-2.042785	-78.344461	-117.060446
40879		9.544263	-0.074225	1.971218	-0.004959	0.009725	0.016871	0.395100	-0.545864	-0.317887	-0.666991	-2.066160	-78.340634	-117.034853
40880		9.544048	-0.092049	1.990314	-0.006101	0.008815	0.013720	0.395127	-0.545854	-0.317859	-0.666996	-2.081472	-78.337227	-117.019470
40881		9.518969	-0.059660	1.988717	-0.006154	0.006697	0.019396	0.395176	-0.545859	-0.317826	-0.666979	-2.112816	-78.335077	-116.986439
40882		9.519331	-0.063502	1.955109	-0.008514	0.011446	0.017244	0.395223	-0.545845	-0.317782	-0.666983	-2.139162	-78.329893	-116.959412
40883		9.518619	-0.079501	2.008335	-0.006080	0.000127	0.015246	0.395249	-0.545864	-0.317774	-0.666956	-2.159615	-78.331588	-116.937458
40884		9.543557	-0.066409	1.956265	-0.006101	0.004912	0.015467	0.395284	-0.545867	-0.317754	-0.666943	-2.180693	-78.330282	-116.914827
40885		9.542872	-0.082176	2.009323	-0.004881	0.003149	0.012723	0.395309	-0.545870	-0.317751	-0.666927	-2.193152	-78.330299	-116.900334
40886		9.542894	-0.051195	1.973138	-0.008467	0.001867	0.016804	0.395335	-0.545890	-0.317724	-0.666907	-2.219703	-78.330748	-116.873859
40887		9.591108	-0.050230	2.008528	-0.010804	0.001832	0.014430	0.395347	-0.545912	-0.317699	-0.666894	-2.240432	-78.331479	-116.854388
40888		9.591538	-0.070045	1.992612	-0.014358	0.005505	0.013930	0.395354	-0.545928	-0.317653	-0.666899	-2.262402	-78.329910	-116.836017
40889		9.567091	-0.055555	1.974409	-0.017842	0.002616	0.009274	0.395332	-0.545953	-0.317617	-0.666909	-2.272784	-78.330306	-116.831228
40890		9.567011	-0.040677	1.956816	-0.015545	0.010270	0.012967	0.395335	-0.545955	-0.317558	-0.666934	-2.291402	-78.326016	-116.817577
40891		9.566258	-0.040113	1.992176	-0.015495	0.008492	0.009035	0.395327	-0.545955	-0.317519	-0.666957	-2.299124	-78.323054	-116.814131
40892		9.566112	-0.041369	1.992849	-0.011965	0.005702	0.011503	0.395343	-0.545954	-0.317496	-0.666959	-2.311465	-78.321119	-116.802248
40893		9.541473	-0.059104	2.011435	-0.011931	0.010660	0.006923	0.395342	-0.545936	-0.317470	-0.666987	-2.311048	-78.316963	-116.805028
40894		9.566237	-0.061623	1.978365	-0.010762	0.010674	0.008111	0.395353	-0.545913	-0.317449	-0.667010	-2.312327	-78.312321	-116.804504
40895		9.566548	-0.080795	1.963005	-0.011933	0.008708	0.007795	0.395351	-0.545903	-0.317424	-0.667030	-2.314544	-78.309263	-116.804596
40896		9.566281	-0.097929	1.982107	-0.014266	0.010624	0.004549	0.395337	-0.545884	-0.317396	-0.667067	-2.309159	-78.304863	-116.813633
40897		9.565499	-0.096930	2.017490	-0.010763	0.008721	0.008984	0.395342	-0.545874	-0.317373	-0.667083	-2.313993	-78.301770	-116.810367
40898		9.564819	-0.079922	2.034533	-0.017855	0.007386	0.009501	0.395334	-0.545876	-0.317332	-0.667106	-2.322601	-78.298927	-116.806213
40899		9.565668	-0.117414	2.002696	-0.017826	0.008447	0.006664	0.395312	-0.545878	-0.317291	-0.667138	-2.325096	-78.296044	-116.809469
40900		9.564548	-0.065855	2.017934	-0.017849	0.009330	0.008633	0.395305	-0.545874	-0.317246	-0.667166	-2.333368	-78.292226	-116.805906
40901		9.564725	-0.101430	2.020934	-0.014306	0.014335	0.007620	0.395305	-0.545850	-0.317203	-0.667206	-2.335822	-78.285950	-116.807143
40902		9.563838	-0.100672	2.056709	-0.015502	0.013254	0.009271	0.395302	-0.545835	-0.317150	-0.667245	-2.343615	-78.280022	-116.804184
40903		9.564159	-0.103599	2.023501	-0.013111	0.013461	0.006842	0.395302	-0.545811	-0.317115	-0.667282	-2.343333	-78.274265	-116.807517
40904		9.563754	-0.120745	2.043074	-0.016635	0.016247	0.004378	0.395281	-0.545783	-0.317063	-0.667342	-2.338189	-78.266825	-116.819123
40905		9.563550	-0.105606	2.026274	-0.022616	0.012795	0.011757	0.395270	-0.545787	-0.316984	-0.667383	-2.356975	-78.261334	-116.808544
40906		9.538743	-0.123493	2.045329	-0.017829	0.015162	0.006030	0.395251	-0.545765	-0.316927	-0.667438	-2.356443	-78.254374	-116.815727
40907		9.537913	-0.106558	2.063044	-0.022608	0.014736	0.010891	0.395240	-0.545762	-0.316847	-0.667486	-2.372600	-78.247792	-116.807828
40908		9.587051	-0.109090	2.030781	-0.019023	0.014075	0.007683	0.395231	-0.545745	-0.316790	-0.667532	-2.378048	-78.241324	-116.808217
40909		9.537968	-0.110858	2.031112	-0.016668	0.011271	0.008960	0.395224	-0.545738	-0.316741	-0.667565	-2.385870	-78.236771	-116.805355
40910		9.537738	-0.111817	2.032138	-0.014252	0.010599	0.004562	0.395215	-0.545714	-0.316719	-0.667600	-2.379008	-78.232232	-116.814832
40911		9.513109	-0.112658	2.032705	-0.013028	0.010796	0.000945	0.395191	-0.545689	-0.316706	-0.667641	-2.362780	-78.228140	-116.834406
40912		9.561181	-0.094509	2.050943	-0.021335	0.011206	0.004208	0.395152	-0.545686	-0.316650	-0.667694	-2.360923	-78.223579	-116.845019
40913		9.535785	-0.110096	2.104068	-0.024841	0.009211	0.001512	0.395094	-0.545690	-0.316598	-0.667749	-2.353217	-78.220380	-116.862802
40914		9.560110	-0.094361	2.087298	-0.029613	0.010727	0.005505	0.395039	-0.545703	-0.316516	-0.667810	-2.358393	-78.215905	-116.870331
40915		9.537825	-0.068310	1.947573	-0.010703	-0.001756	0.006559	0.395020	-0.545724	-0.316519	-0.667802	-2.357684	-78.218866	-116.872691
40916		9.512755	-0.067209	1.981632	-0.008243	0.002543	-0.002410	0.394981	-0.545713	-0.316543	-0.667823	-2.330670	-78.219349	-116.901183
40917		9.535455	-0.112072	2.105457	-0.017590	-0.001469	-0.010184	0.394888	-0.545720	-0.316569	-0.667861	-2.287897	-78.222532	-116.950543
40918		9.608514	-0.127631	2.125073	-0.046043	0.005359	-0.001749	0.394754	-0.545773	-0.316461	-0.667948	-2.283560	-78.221330	-116.977625
40919		9.586009	-0.034532	1.947857	-0.052066	0.014266	0.007209	0.394649	-0.545823	-0.316293	-0.668048	-2.306558	-78.215102	-116.979979
40920		9.560125	-0.016501	1.999648	-0.033171	0.015242	0.007002	0.394598	-0.545833	-0.316183	-0.668122	-2.319440	-78.208137	-116.981859
40921		9.561322	-0.088642	1.969745	-0.036718	0.008275	0.008871	0.394531	-0.545875	-0.316074	-0.668179	-2.338853	-78.205301	-116.978891
40922		9.511607	-0.172458	2.060133	-0.034293	0.009559	0.003609	0.394458	-0.545898	-0.315984	-0.668246	-2.342456	-78.201549	-116.990479
40923		9.510946	-0.139072	2.059634	-0.020188	0.016833	0.007636	0.394446	-0.545877	-0.315917	-0.668302	-2.348047	-78.193843	-116.991956
40924		9.536850	-0.177661	1.993860	-0.009538	0.004963	0.007126	0.394445	-0.545871	-0.315910	-0.668310	-2.347373	-78.192596	-116.993278
40925		9.559512	-0.207169	2.099839	0.003537	0.003062	-0.000134	0.394450	-0.545838	-0.315970	-0.668307	-2.319637	-78.192954	-117.014915
40926		9.559260	-0.156114	2.080193	-0.003497	-0.000041	-0.003565	0.394417	-0.545823	-0.316019	-0.668315	-2.286873	-78.194911	-117.046242
40927		9.583617	-0.155811	2.080891	-0.011811	0.005128	-0.000056	0.394384	-0.545812	-0.316023	-0.668341	-2.267913	-78.194080	-117.067897
40928		9.534329	-0.122238	2.078681	-0.013009	0.004042	0.001591	0.394348	-0.545812	-0.316016	-0.668366	-2.255319	-78.193667	-117.084533
40929		9.559117	-0.073114	2.025241	-0.005931	0.003441	0.001943	0.394334	-0.545799	-0.316038	-0.668374	-2.238653	-78.193755	-117.100402
40930		9.558992	-0.073331	2.025822	0.003501	0.008715	0.002082	0.394350	-0.545754	-0.316073	-0.668385	-2.217808	-78.190765	-117.116282
40931		9.581999	-0.053211	2.078027	0.010612	0.009186	-0.000400	0.394383	-0.545686	-0.316145	-0.668387	-2.184649	-78.187612	-117.139318
40932		9.557609	-0.104082	2.098259	0.007090	0.010021	-0.001994	0.394392	-0.545624	-0.316198	-0.668407	-2.149964	-78.183959	-117.167880
40933		9.558255	-0.089222	2.046648	0.005866	0.009813	0.001624	0.394420	-0.545566	-0.316248	-0.668414	-2.125031	-78.180399	-117.185292
40934		9.581895	-0.070935	2.064595	0.005848	0.012638	0.002732	0.394458	-0.545498	-0.316288	-0.668428	-2.102852	-78.174902	-117.199769
40935		9.581419	-0.087392	2.084126	0.003507	0.017384	0.000599	0.394487	-0.545418	-0.316318	-0.668462	-2.075742	-78.167025	-117.220785
40936		9.557346	-0.089358	2.050884	0.007038	0.018495	0.001331	0.394536	-0.545326	-0.316355	-0.668491	-2.049826	-78.158243	-117.238123
40937		9.556946	-0.089485	2.052740	0.005821	0.020234	0.004086	0.394588	-0.545237	-0.316377	-0.668523	-2.030696	-78.148660	-117.249633
40938		9.508407	-0.091851	2.019350	0.005866	0.023250	0.000388	0.394638	-0.545127	-0.316406	-0.668569	-2.000557	-78.137003	-117.271648
40939		9.531653	-0.089775	2.056359	0.003519	0.019325	-0.000262	0.394668	-0.545039	-0.316434	-0.668610	-1.971048	-78.128024	-117.295111
40940		9.531229	-0.089966	2.058314	-0.002446	0.021693	0.004513	0.394697	-0.544962	-0.316421	-0.668662	-1.957324	-78.117341	-117.306724
40941		9.530414	-0.056060	2.058658	-0.006002	0.021456	0.005752	0.394724	-0.544895	-0.316397	-0.668712	-1.949495	-78.107021	-117.313610
40942		9.554759	-0.090972	2.062831	-0.006010	0.019506	0.006616	0.394749	-0.544837	-0.316370	-0.668757	-1.944345	-78.097612	-117.318364
40943		9.530732	-0.093653	2.029555	-0.005992	0.016681	0.005508	0.394768	-0.544785	-0.316356	-0.668795	-1.936311	-78.090031	-117.325454
40944		9.580195	-0.079123	1.979495	-0.002480	0.013896	0.007970	0.394803	-0.544738	-0.316351	-0.668814	-1.933965	-78.083759	-117.324574
40945		9.551020	-0.053842	2.169426	-0.020189	0.021580	0.007868	0.394799	-0.544702	-0.316273	-0.668883	-1.940027	-78.073327	-117.325572
40946		9.528385	-0.060570	2.067899	-0.024960	0.029794	0.011244	0.394807	-0.544656	-0.316149	-0.668975	-1.959900	-78.058006	-117.315778
40947		9.552957	-0.063560	2.036790	-0.024956	0.029786	0.011248	0.394815	-0.544607	-0.316030	-0.669067	-1.977052	-78.042809	-117.308231
40948		9.552637	-0.048469	2.021233	-0.006046	0.023185	0.009711	0.394855	-0.544540	-0.315988	-0.669117	-1.979287	-78.031152	-117.305439
40949		9.550953	-0.080607	2.093806	-0.004848	0.017552	0.008681	0.394889	-0.544488	-0.315967	-0.669149	-1.979099	-78.023010	-117.303839
40950		9.501761	-0.082037	2.094380	-0.014250	0.018126	0.005937	0.394892	-0.544447	-0.315920	-0.669203	-1.977595	-78.014338	-117.309011
40951		9.500520	-0.081069	2.130751	-0.016553	0.021990	0.001834	0.394878	-0.544393	-0.315870	-0.669278	-1.965243	-78.003791	-117.326703
40952		9.548581	-0.046623	2.132066	-0.021268	0.016971	0.001629	0.394847	-0.544362	-0.315815	-0.669348	-1.956275	-77.995855	-117.343326
40953		9.572047	-0.029053	2.150638	-0.029543	0.016481	0.002909	0.394793	-0.544354	-0.315729	-0.669427	-1.954807	-77.988439	-117.357501
40954		9.574212	-0.034809	2.048705	-0.020113	0.015030	0.003685	0.394766	-0.544333	-0.315673	-0.669486	-1.951350	-77.981610	-117.368398
40955		9.524484	-0.017859	2.065497	-0.017705	0.017198	0.000401	0.394737	-0.544294	-0.315633	-0.669554	-1.936314	-77.973833	-117.389512
40956		9.523876	-0.034683	2.085160	-0.009467	0.016611	0.001958	0.394734	-0.544243	-0.315615	-0.669606	-1.920455	-77.966090	-117.406925
40957		9.524430	-0.087567	2.072036	-0.009454	0.018554	0.001099	0.394732	-0.544185	-0.315597	-0.669663	-1.902494	-77.957519	-117.426197
40958		9.547596	-0.086092	2.108841	-0.018893	0.018050	0.001185	0.394696	-0.544154	-0.315539	-0.669737	-1.892416	-77.949261	-117.444630
40959		9.549017	-0.140891	2.061189	-0.024814	0.016709	0.002871	0.394655	-0.544135	-0.315469	-0.669809	-1.888212	-77.941712	-117.458836
40960		9.547725	-0.089430	2.077646	-0.028427	0.018208	0.008054	0.394624	-0.544124	-0.315368	-0.669883	-1.899209	-77.932850	-117.459774
40961		9.497930	-0.073220	2.094581	-0.029586	0.018190	0.006865	0.394585	-0.544116	-0.315269	-0.669959	-1.908314	-77.924378	-117.463166
40962		9.522550	-0.092500	2.080444	-0.029655	0.017980	0.011675	0.394570	-0.544113	-0.315158	-0.670023	-1.931247	-77.915605	-117.451624
40963		9.571872	-0.095061	2.048854	-0.027228	0.017333	0.007279	0.394538	-0.544104	-0.315066	-0.670092	-1.940168	-77.907616	-117.453822
40964		9.545335	-0.093389	2.118745	-0.023683	0.015624	0.006906	0.394506	-0.544099	-0.314981	-0.670155	-1.948966	-77.900675	-117.455714
40965		9.545918	-0.096241	2.085628	-0.027251	0.013432	0.008999	0.394474	-0.544106	-0.314892	-0.670210	-1.962839	-77.894887	-117.452862
40966		9.569714	-0.062745	2.086026	-0.022488	0.014758	0.006127	0.394448	-0.544094	-0.314823	-0.670268	-1.966820	-77.888154	-117.457447
40967		9.545962	-0.065424	2.052056	-0.017739	0.009381	0.003852	0.394418	-0.544087	-0.314788	-0.670307	-1.961877	-77.884786	-117.468266
40968		9.520734	-0.099222	2.088431	-0.014168	0.011568	0.001763	0.394404	-0.544057	-0.314772	-0.670348	-1.949484	-77.879809	-117.483285
40969		9.544943	-0.048221	2.070410	-0.008215	0.007283	-0.002154	0.394376	-0.544029	-0.314790	-0.670379	-1.923274	-77.877758	-117.510274
40970		9.521278	-0.101033	2.055641	-0.012947	0.009840	-0.000994	0.394341	-0.544006	-0.314778	-0.670424	-1.903645	-77.874074	-117.534107
40971		9.519868	-0.065183	2.089439	-0.008244	0.008150	-0.000178	0.394321	-0.543978	-0.314789	-0.670453	-1.882662	-77.871485	-117.555767
40972		9.544128	-0.065423	2.090721	-0.018927	0.005470	0.004375	0.394291	-0.543983	-0.314759	-0.670480	-1.880391	-77.869972	-117.563598
40973		9.543345	-0.048152	2.107952	-0.015370	0.010472	0.003407	0.394267	-0.543967	-0.314732	-0.670520	-1.872851	-77.865984	-117.575685
40974		9.519706	-0.050485	2.073548	-0.014179	0.004856	0.002360	0.394230	-0.543968	-0.314716	-0.670548	-1.862387	-77.865012	-117.591102
40975		9.543633	-0.067181	2.092926	-0.012973	0.010703	0.000985	0.394205	-0.543943	-0.314703	-0.670589	-1.847015	-77.860936	-117.609795
40976		9.518697	-0.084192	2.111239	-0.012943	0.009834	-0.000990	0.394173	-0.543917	-0.314695	-0.670633	-1.826758	-77.857157	-117.633580
40977		9.543243	-0.067805	2.094682	-0.013003	0.006809	0.002697	0.394148	-0.543908	-0.314684	-0.670660	-1.816311	-77.855277	-117.647253
40978		9.543050	-0.068258	2.095548	-0.015322	0.011542	0.000579	0.394121	-0.543882	-0.314663	-0.670708	-1.801552	-77.850418	-117.666376
40979		9.518473	-0.068903	2.095662	-0.015337	0.004838	0.001169	0.394081	-0.543881	-0.314652	-0.670736	-1.788555	-77.849693	-117.684027
40980		9.518328	-0.069203	2.096311	-0.010590	0.008986	-0.000580	0.394056	-0.543852	-0.314654	-0.670774	-1.767313	-77.846291	-117.707327
40981		9.542881	-0.052665	2.079785	-0.012955	0.007883	-0.000132	0.394023	-0.543835	-0.314649	-0.670809	-1.749251	-77.843842	-117.728763
40982		9.494862	-0.105868	2.064046	-0.011780	0.005082	-0.000061	0.393984	-0.543828	-0.314647	-0.670839	-1.731836	-77.842911	-117.750011
40983		9.541967	-0.086327	2.116913	-0.013000	0.006802	0.002700	0.393959	-0.543819	-0.314636	-0.670866	-1.721426	-77.841030	-117.763645
40984		9.518103	-0.054144	2.080803	-0.009506	0.004024	0.005154	0.393947	-0.543817	-0.314633	-0.670877	-1.716620	-77.840522	-117.769909
40985		9.517953	-0.105766	2.100750	-0.012999	0.006800	0.002701	0.393922	-0.543808	-0.314622	-0.670904	-1.706218	-77.838642	-117.783536
40986		9.542207	-0.106097	2.102069	-0.005964	0.007081	0.005046	0.393928	-0.543784	-0.314629	-0.670916	-1.698032	-77.836196	-117.790369
40987		9.518007	-0.090420	2.083988	-0.013014	0.004853	0.003555	0.393903	-0.543783	-0.314620	-0.670936	-1.690069	-77.835415	-117.801510
40988		9.565725	-0.088978	2.120370	-0.009443	0.007046	0.001470	0.393879	-0.543767	-0.314618	-0.670964	-1.675504	-77.833333	-117.818439
40989		9.542146	-0.090946	2.085839	-0.008252	0.006192	0.000686	0.393859	-0.543747	-0.314630	-0.670986	-1.657092	-77.831832	-117.837477
40990		9.542005	-0.091368	2.086466	-0.005964	0.007079	0.005047	0.393860	-0.543730	-0.314630	-0.670999	-1.650820	-77.829667	-117.843492
40991		9.516798	-0.074288	2.103072	-0.003628	0.009045	0.006578	0.393877	-0.543701	-0.314636	-0.671010	-1.645195	-77.826433	-117.846739
40992		9.517595	-0.076283	2.069366	-0.002408	0.007327	0.003816	0.393887	-0.543669	-0.314656	-0.671021	-1.631999	-77.823948	-117.857006
40993		9.517473	-0.076968	2.069904	-0.006026	0.004051	0.008731	0.393897	-0.543665	-0.314658	-0.671017	-1.633848	-77.823539	-117.854014
40994		9.516762	-0.060043	2.086767	-0.001358	0.003230	0.011524	0.393932	-0.543655	-0.314671	-0.670998	-1.640841	-77.823220	-117.842366
40995		9.516706	-0.060979	2.086991	-0.001297	0.001501	0.007570	0.393947	-0.543648	-0.314697	-0.670983	-1.637089	-77.824291	-117.842330
40996		9.492871	-0.079778	2.070037	0.002275	0.003695	0.005485	0.393969	-0.543620	-0.314737	-0.670974	-1.624332	-77.823771	-117.849182
40997		9.516889	-0.096592	2.088811	0.003431	-0.001050	0.006408	0.393989	-0.543611	-0.314787	-0.670946	-1.614976	-77.826322	-117.852108
40998		9.516242	-0.079038	2.105417	0.002305	0.002830	0.003508	0.394003	-0.543585	-0.314832	-0.670938	-1.598214	-77.826395	-117.863328
40999		9.516249	-0.079395	2.105371	0.003445	-0.003859	0.005284	0.394014	-0.543583	-0.314891	-0.670905	-1.586068	-77.830572	-117.869100
41000		9.491884	-0.080102	2.104497	0.001082	-0.000207	0.006000	0.394022	-0.543578	-0.314926	-0.670889	-1.577698	-77.832524	-117.873563
41001		9.541360	-0.046939	2.070109	0.003512	0.003921	0.001870	0.394035	-0.543544	-0.314979	-0.670883	-1.555869	-77.832297	-117.889202
41002		9.541261	-0.047374	2.070556	0.001056	0.005411	0.008248	0.394068	-0.543516	-0.315005	-0.670874	-1.551367	-77.830698	-117.887986
41003		9.515802	-0.046904	2.104683	-0.001296	0.001500	0.007570	0.394083	-0.543509	-0.315031	-0.670859	-1.547609	-77.831769	-117.887957
41004		9.540129	-0.047492	2.105698	0.002216	0.005420	0.009441	0.394118	-0.543487	-0.315052	-0.670847	-1.547392	-77.830423	-117.882849
41005		9.515983	-0.031985	2.087509	-0.002468	0.004298	0.007502	0.394134	-0.543473	-0.315068	-0.670841	-1.543922	-77.829893	-117.883212
41006		9.540547	-0.066994	2.090053	-0.003628	0.004288	0.006309	0.394140	-0.543460	-0.315081	-0.670842	-1.538525	-77.829187	-117.886804
41007		9.538822	-0.048416	2.141581	-0.007195	0.006848	0.008664	0.394151	-0.543449	-0.315073	-0.670848	-1.540668	-77.827178	-117.884197
41008		9.515224	-0.050949	2.107203	-0.004811	0.009894	0.007365	0.394167	-0.543421	-0.315068	-0.670864	-1.538079	-77.823211	-117.885571
41009		9.563617	-0.017119	2.107890	-0.006083	0.005774	0.012688	0.394193	-0.543417	-0.315055	-0.670858	-1.550340	-77.821754	-117.871960
41010		9.538899	-0.069328	2.127397	-0.003603	0.010984	0.005728	0.394211	-0.543377	-0.315060	-0.670878	-1.541288	-77.817026	-117.878555
41011		9.564072	-0.071321	2.094606	-0.003651	0.009901	0.008559	0.394236	-0.543348	-0.315059	-0.670887	-1.540901	-77.813270	-117.876457
41012		9.539851	-0.055835	2.076835	-0.008335	0.008780	0.006619	0.394237	-0.543329	-0.315046	-0.670907	-1.538284	-77.809958	-117.879982
41013		9.539674	-0.056590	2.077627	-0.007146	0.007926	0.005834	0.394240	-0.543310	-0.315044	-0.670922	-1.532816	-77.807375	-117.885131
41014		9.490939	-0.092126	2.078363	-0.005956	0.007073	0.005050	0.394243	-0.543286	-0.315050	-0.670936	-1.523672	-77.804909	-117.893248
41015		9.490579	-0.058229	2.077506	-0.007134	0.005118	0.004710	0.394239	-0.543274	-0.315057	-0.670945	-1.515419	-77.803951	-117.901239
41016		9.515463	-0.076601	2.062299	-0.008304	0.007915	0.004642	0.394231	-0.543256	-0.315051	-0.670967	-1.507483	-77.801172	-117.910261
41017		9.513727	-0.058103	2.113768	-0.010756	0.001840	0.009623	0.394228	-0.543270	-0.315039	-0.670964	-1.514557	-77.802017	-117.904695
41018		9.514006	-0.042447	2.096314	-0.010651	0.008758	0.004235	0.394222	-0.543250	-0.315029	-0.670989	-1.507503	-77.798695	-117.913136
41019		9.538604	-0.026444	2.079986	-0.013028	0.010462	0.005806	0.394213	-0.543233	-0.315002	-0.671020	-1.505165	-77.794659	-117.918531
41020		9.562001	-0.060070	2.117523	-0.004777	0.009022	0.005393	0.394226	-0.543205	-0.315005	-0.671034	-1.499074	-77.791315	-117.922921
41021		9.536393	-0.059467	2.152096	-0.008302	0.007912	0.004644	0.394222	-0.543186	-0.315003	-0.671053	-1.491137	-77.788757	-117.931275
41022		9.562749	-0.062682	2.084251	-0.001268	0.000629	0.005594	0.394229	-0.543176	-0.315036	-0.671041	-1.481386	-77.790015	-117.937356
41023		9.491611	-0.066394	2.013017	-0.002386	-0.003046	0.001296	0.394213	-0.543177	-0.315084	-0.671027	-1.461945	-77.793781	-117.954011
41024		9.512593	-0.078462	2.134887	-0.005813	-0.001988	-0.005114	0.394167	-0.543172	-0.315133	-0.671035	-1.428763	-77.796912	-117.987143
41025		9.582319	-0.004731	2.237606	-0.024708	0.000646	-0.001864	0.394085	-0.543199	-0.315107	-0.671073	-1.413475	-77.798606	-118.012634
41026		9.587235	-0.012795	2.066101	-0.036654	0.018438	0.011352	0.394042	-0.543211	-0.314968	-0.671154	-1.439292	-77.789698	-118.003417
41027		9.492037	-0.036085	1.978920	-0.029658	0.007261	0.014005	0.394011	-0.543251	-0.314870	-0.671186	-1.468419	-77.787375	-117.986367
41028		9.513152	-0.084667	2.102314	-0.027306	-0.008697	0.011605	0.393959	-0.543332	-0.314820	-0.671174	-1.491627	-77.793896	-117.973197
41029		9.487013	-0.118354	2.171316	-0.020266	-0.003675	0.014234	0.393937	-0.543391	-0.314774	-0.671161	-1.516741	-77.797830	-117.954749
41030		9.441743	-0.107769	2.048233	-0.017849	-0.001488	0.010961	0.393915	-0.543432	-0.314738	-0.671157	-1.533317	-77.800394	-117.943802
41031		9.465244	-0.107580	2.082805	-0.010810	-0.011574	0.010775	0.393894	-0.543493	-0.314749	-0.671115	-1.544433	-77.808903	-117.934133
41032		9.514339	-0.108394	2.082862	-0.010789	-0.017185	0.008517	0.393861	-0.543568	-0.314776	-0.671061	-1.551423	-77.820434	-117.928425
41033		9.537921	-0.073468	2.114936	-0.008462	-0.019977	0.009775	0.393830	-0.543651	-0.314815	-0.670994	-1.559176	-77.833771	-117.920821
41034		9.562725	-0.074325	2.113797	-0.001383	-0.018616	0.009293	0.393815	-0.543716	-0.314870	-0.670924	-1.561862	-77.846168	-117.915070
41035		9.563727	-0.007396	2.074952	0.001032	-0.016426	0.006019	0.393803	-0.543762	-0.314944	-0.670860	-1.553942	-77.857529	-117.917934
41036		9.539414	-0.059235	2.092034	0.003370	-0.014466	0.007554	0.393799	-0.543803	-0.315010	-0.670797	-1.549318	-77.867648	-117.917207
41037		9.563938	-0.025047	2.090018	0.004605	-0.014229	0.003937	0.393793	-0.543832	-0.315097	-0.670737	-1.533623	-77.877783	-117.925928
41038		9.563645	-0.007503	2.105270	0.004578	-0.013372	0.005917	0.393799	-0.543859	-0.315176	-0.670674	-1.524445	-77.887150	-117.927675
41039		9.564108	-0.042467	2.105299	0.006925	-0.014217	0.006323	0.393808	-0.543887	-0.315263	-0.670605	-1.513759	-77.897241	-117.929914
41040		9.564355	-0.042939	2.104169	0.006936	-0.009465	0.006601	0.393826	-0.543897	-0.315340	-0.670550	-1.503789	-77.904309	-117.931407
41041		9.588978	-0.043415	2.103843	0.003364	-0.011665	0.008686	0.393836	-0.543927	-0.315404	-0.670490	-1.501265	-77.912903	-117.927386
41042		9.540957	-0.062438	2.084895	0.005703	-0.009705	0.010219	0.393862	-0.543947	-0.315467	-0.670429	-1.501435	-77.920073	-117.919288
41043		9.517829	-0.099348	2.050375	0.001002	-0.005209	0.010538	0.393883	-0.543963	-0.315506	-0.670386	-1.504773	-77.924941	-117.910656
41044		9.541218	-0.064478	2.083637	0.000956	-0.006300	0.013369	0.393915	-0.543985	-0.315538	-0.670333	-1.517006	-77.930145	-117.892679
41045		9.541726	-0.049214	2.065196	-0.002577	-0.004603	0.013752	0.393937	-0.544011	-0.315555	-0.670291	-1.530979	-77.934616	-117.875269
41046		9.517807	-0.034095	2.046201	-0.006083	-0.003765	0.012155	0.393949	-0.544033	-0.315566	-0.670261	-1.540799	-77.938155	-117.863546
41047		9.541887	-0.051775	2.064392	-0.004896	-0.004618	0.011368	0.393957	-0.544060	-0.315582	-0.670228	-1.549730	-77.942670	-117.852652
41048		9.517583	-0.053178	2.063225	-0.006102	-0.005715	0.013008	0.393964	-0.544095	-0.315588	-0.670192	-1.564073	-77.947528	-117.837296
41049		9.542493	-0.037654	2.045495	-0.001343	-0.004369	0.010134	0.393979	-0.544112	-0.315618	-0.670155	-1.567655	-77.951919	-117.829789
41050		9.566712	-0.089410	2.064999	0.008108	-0.004715	0.008070	0.394004	-0.544114	-0.315678	-0.670111	-1.562091	-77.956551	-117.827622
41051		9.568676	-0.092672	1.995713	0.005781	-0.001920	0.006814	0.394030	-0.544103	-0.315736	-0.670077	-1.552500	-77.959591	-117.829412
41052		9.564268	-0.035588	2.148565	-0.008375	-0.004637	0.007793	0.394018	-0.544131	-0.315748	-0.670056	-1.554742	-77.963934	-117.827473
41053		9.540796	-0.038388	2.113462	-0.021378	0.005825	0.013627	0.394006	-0.544158	-0.315681	-0.670072	-1.578445	-77.962432	-117.811130
41054		9.542446	-0.008683	2.043713	-0.026185	0.006187	0.020463	0.394001	-0.544208	-0.315574	-0.670085	-1.624905	-77.960529	-117.775153
41055		9.542425	-0.045527	2.045654	-0.017920	0.006690	0.019188	0.394018	-0.544235	-0.315502	-0.670087	-1.661478	-77.958436	-117.743625
41056		9.543506	-0.117696	2.014179	-0.003746	0.000988	0.014821	0.394055	-0.544243	-0.315502	-0.670058	-1.679437	-77.959367	-117.722179
41057		9.540713	-0.115279	2.117243	0.000891	-0.009359	0.017055	0.394091	-0.544283	-0.315531	-0.669991	-1.700777	-77.966495	-117.695207
41058		9.491453	-0.098929	2.132081	-0.008385	0.000968	0.010053	0.394101	-0.544292	-0.315531	-0.669979	-1.708051	-77.967490	-117.687114
41059		9.517793	-0.102689	2.063563	-0.015478	-0.005145	0.010265	0.394075	-0.544339	-0.315515	-0.669962	-1.720214	-77.972319	-117.679115
41060		9.540825	-0.084723	2.114802	-0.014317	-0.005143	0.011458	0.394062	-0.544386	-0.315499	-0.669940	-1.736637	-77.976920	-117.665774
41061		9.590606	-0.052754	2.079779	-0.017842	-0.006251	0.010714	0.394030	-0.544442	-0.315476	-0.669924	-1.751471	-77.982374	-117.656429
41062		9.566305	-0.054285	2.078599	-0.015500	-0.004296	0.012249	0.394010	-0.544492	-0.315448	-0.669908	-1.769709	-77.986506	-117.642905
41063		9.541960	-0.055767	2.077622	-0.010768	-0.002091	0.011355	0.394007	-0.544521	-0.315439	-0.669891	-1.781888	-77.989565	-117.632130
41064		9.542004	-0.056883	2.077389	-0.007192	-0.002695	0.008137	0.394001	-0.544541	-0.315449	-0.669873	-1.784121	-77.992793	-117.629676
41065		9.542056	-0.057764	2.077127	-0.008352	-0.002699	0.006945	0.393988	-0.544561	-0.315462	-0.669859	-1.783100	-77.996279	-117.630981
41066		9.541675	-0.075259	2.094741	-0.013062	-0.002956	0.006990	0.393958	-0.544592	-0.315455	-0.669854	-1.784751	-77.999713	-117.633020
41067		9.518696	-0.061000	2.041435	-0.020118	-0.002366	0.006632	0.393912	-0.544634	-0.315428	-0.669860	-1.789601	-78.003014	-117.635215
41068		9.567120	-0.078369	2.060377	-0.015382	-0.002966	0.004607	0.393871	-0.544666	-0.315419	-0.669862	-1.787833	-78.006538	-117.641934
41069		9.542774	-0.079382	2.059408	-0.016611	-0.003214	0.008229	0.393839	-0.544707	-0.315401	-0.669856	-1.795050	-78.010295	-117.639655
41070		9.542852	-0.080409	2.059008	-0.014241	-0.004916	0.006650	0.393798	-0.544750	-0.315390	-0.669851	-1.797854	-78.015022	-117.642114
41071		9.542939	-0.081342	2.058567	-0.016585	-0.004070	0.006249	0.393758	-0.544790	-0.315379	-0.669847	-1.799790	-78.019305	-117.645219
41072		9.519052	-0.065859	2.039621	-0.018974	-0.004323	0.008679	0.393728	-0.544834	-0.315358	-0.669838	-1.810023	-78.023280	-117.639977
41073		9.542581	-0.065683	2.074477	-0.022457	-0.001530	0.006237	0.393676	-0.544877	-0.315323	-0.669851	-1.815078	-78.026109	-117.643333
41074		9.544045	-0.051237	2.021650	-0.020105	-0.007988	0.004374	0.393614	-0.544932	-0.315312	-0.669847	-1.814307	-78.032376	-117.651359
41075		9.543647	-0.034166	2.037827	-0.020066	-0.001283	0.003809	0.393561	-0.544966	-0.315290	-0.669861	-1.811409	-78.035107	-117.661444
41076		9.544178	-0.052704	2.020984	-0.017697	-0.002983	0.002229	0.393502	-0.545000	-0.315279	-0.669874	-1.803672	-78.038708	-117.676140
41077		9.543317	-0.051954	2.055156	-0.011804	-0.003575	0.001392	0.393459	-0.545021	-0.315296	-0.669873	-1.789688	-78.042794	-117.692719
41078		9.567337	-0.068876	2.073410	-0.011782	-0.001624	0.000543	0.393418	-0.545035	-0.315309	-0.669880	-1.774840	-78.045590	-117.710436
41079		9.567342	-0.069136	2.073379	-0.014105	0.001174	-0.000706	0.393370	-0.545042	-0.315315	-0.669900	-1.756086	-78.046992	-117.733237
41080		9.592210	-0.087160	2.057492	-0.014105	0.001173	-0.000706	0.393323	-0.545046	-0.315320	-0.669921	-1.737344	-78.048081	-117.755945
41081		9.567323	-0.069577	2.073451	-0.012942	-0.001629	-0.000648	0.393274	-0.545060	-0.315336	-0.669932	-1.718299	-78.051085	-117.778362
41082		9.518469	-0.069876	2.072340	-0.015246	0.005923	-0.001610	0.393226	-0.545051	-0.315329	-0.669971	-1.697390	-78.049540	-117.804331
41083		9.518855	-0.053499	2.054731	-0.012964	-0.000780	0.001335	0.393185	-0.545064	-0.315337	-0.669980	-1.683646	-78.052020	-117.821343
41084		9.518815	-0.054006	2.054902	-0.018837	0.004562	0.002462	0.393143	-0.545074	-0.315310	-0.670010	-1.677805	-78.051252	-117.833646
41085		9.543631	-0.072360	2.039246	-0.015310	0.002867	0.002071	0.393103	-0.545081	-0.315302	-0.670031	-1.667104	-78.051630	-117.848922
41086		9.542162	-0.053803	2.090621	-0.014126	0.002018	0.001280	0.393056	-0.545090	-0.315294	-0.670054	-1.653609	-78.052317	-117.867582
41087		9.542598	-0.072109	2.074185	-0.015309	0.002864	0.002072	0.393017	-0.545098	-0.315285	-0.670076	-1.642908	-78.052695	-117.882856
41088		9.543058	-0.090458	2.057636	-0.020013	-0.000202	0.000985	0.392953	-0.545127	-0.315264	-0.670100	-1.633995	-78.054807	-117.899992
41089		9.542574	-0.073361	2.074253	-0.020080	-0.000456	0.005800	0.392907	-0.545160	-0.315235	-0.670112	-1.636374	-78.057026	-117.904692
41090		9.566426	-0.056281	2.091856	-0.017652	0.006507	0.002812	0.392866	-0.545163	-0.315204	-0.670149	-1.629380	-78.055159	-117.918413
41091		9.518937	-0.041560	2.038462	-0.020055	-0.001310	0.003817	0.392813	-0.545197	-0.315183	-0.670163	-1.626441	-78.057899	-117.928533
41092		9.567275	-0.058834	2.057703	-0.016489	0.003704	0.002868	0.392774	-0.545200	-0.315168	-0.670190	-1.616079	-78.057284	-117.943892
41093		9.590696	-0.092816	2.094393	-0.011805	0.004816	0.004804	0.392756	-0.545199	-0.315160	-0.670205	-1.610612	-78.056498	-117.951765
41094		9.543186	-0.078013	2.041119	-0.014145	0.002858	0.003268	0.392728	-0.545202	-0.315154	-0.670222	-1.602212	-78.056488	-117.963409
41095		9.567530	-0.078566	2.042042	-0.014144	0.002857	0.003269	0.392696	-0.545209	-0.315146	-0.670239	-1.594077	-78.056848	-117.975379
41096		9.567439	-0.079267	2.042438	-0.012987	0.005659	0.005598	0.392675	-0.545212	-0.315122	-0.670259	-1.593774	-78.055542	-117.979762
41097		9.567337	-0.079968	2.042889	-0.010620	0.003966	0.004013	0.392657	-0.545210	-0.315121	-0.670272	-1.585554	-78.055255	-117.989755
41098		9.542858	-0.080518	2.042556	-0.010597	0.003117	0.002029	0.392630	-0.545207	-0.315125	-0.670289	-1.572493	-78.055250	-118.005049
41099		9.542762	-0.081072	2.042979	-0.008280	0.005922	0.005550	0.392626	-0.545196	-0.315124	-0.670300	-1.566950	-78.053818	-118.010935
