// General information: 
//  MT Manager version: 2025.0.0 
//  XDA version: 2025.0.0 build 241121001 rev 1732180523 built on 2024-11-21
// Device information: 
//  DeviceId: 00B4245A
//  ProductCode: MTW2-3A7G6
//  Firmware Version: 4.14.0
//  Hardware Version: 1.1.0
// Device settings: 
//  Filter Profile: human(46.1)
//  Option Flags: Orientation Smoother Disabled, Position/Velocity Smoother Disabled, Continuous Zero Rotation Update Disabled, AHS Disabled, ICC Disabled
// Coordinate system: ENU
PacketCounter	SampleTimeFine	Acc_X	Acc_Y	Acc_Z	Gyr_X	Gyr_Y	Gyr_Z	Quat_q0	Quat_q1	Quat_q2	Quat_q3	Roll	Pitch	Yaw
29085		9.459032	-0.064478	2.425331	-0.030555	-0.013230	0.018310	0.409255	-0.528019	-0.310903	-0.676052	-2.715977	-75.560832	-115.516514
29086		9.485951	-0.111351	2.337934	-0.020072	-0.010538	0.018269	0.409236	-0.528108	-0.310862	-0.676012	-2.747983	-75.568662	-115.490779
29087		9.473079	-0.155616	2.367905	-0.008363	-0.024346	0.012687	0.409202	-0.528217	-0.310899	-0.675931	-2.763642	-75.584787	-115.476044
29088		9.491596	-0.169556	2.488100	-0.010328	-0.024966	0.011950	0.409165	-0.528326	-0.310937	-0.675850	-2.777614	-75.601045	-115.463168
29089		9.450292	-0.175126	2.481671	-0.025958	-0.025998	0.013442	0.409089	-0.528473	-0.310920	-0.675789	-2.804489	-75.617930	-115.446443
29090		9.464110	-0.134431	2.447770	-0.038933	-0.020955	0.007259	0.408967	-0.528620	-0.310866	-0.675773	-2.824014	-75.632023	-115.444756
29091		9.483617	-0.153136	2.411940	-0.041454	-0.022027	0.008039	0.408832	-0.528780	-0.310799	-0.675761	-2.847139	-75.646793	-115.441977
29092		9.479784	-0.126057	2.427782	-0.033943	-0.027606	0.012725	0.408731	-0.528947	-0.310761	-0.675709	-2.876831	-75.664535	-115.426845
29093		9.480426	-0.128014	2.425173	-0.027937	-0.026614	0.012713	0.408647	-0.529102	-0.310738	-0.675649	-2.904771	-75.681917	-115.410412
29094		9.470855	-0.170822	2.419987	-0.023023	-0.023597	0.013393	0.408583	-0.529234	-0.310727	-0.675589	-2.929349	-75.697342	-115.394103
29095		9.456839	-0.184735	2.433223	-0.025107	-0.023347	0.014889	0.408517	-0.529370	-0.310705	-0.675532	-2.957227	-75.712494	-115.375705
29096		9.473245	-0.205499	2.431553	-0.036263	-0.022678	0.016362	0.408430	-0.529531	-0.310639	-0.675489	-2.996055	-75.727300	-115.352521
29097		9.462224	-0.218496	2.410611	-0.040972	-0.019698	0.018534	0.408338	-0.529699	-0.310543	-0.675457	-3.043176	-75.740611	-115.324271
29098		9.469765	-0.182327	2.445934	-0.055860	-0.017206	0.023719	0.408232	-0.529892	-0.310380	-0.675444	-3.109286	-75.752051	-115.284527
29099		9.500611	-0.192740	2.429023	-0.058955	-0.021667	0.028358	0.408123	-0.530117	-0.310201	-0.675416	-3.188498	-75.765955	-115.233822
29100		9.457768	-0.169827	2.407288	-0.052922	-0.014803	0.023676	0.408028	-0.530296	-0.310044	-0.675405	-3.252705	-75.775997	-115.194310
29101		9.458112	-0.173379	2.405682	-0.055888	-0.017191	0.023748	0.407917	-0.530494	-0.309875	-0.675394	-3.320276	-75.787543	-115.154136
29102		9.442642	-0.158048	2.403463	-0.052593	-0.017386	0.016996	0.407797	-0.530671	-0.309742	-0.675388	-3.369692	-75.799264	-115.129690
29103		9.443016	-0.160952	2.401802	-0.055661	-0.015972	0.016967	0.407669	-0.530848	-0.309596	-0.675393	-3.419780	-75.810070	-115.106440
29104		9.389919	-0.177944	2.377356	-0.054578	-0.017993	0.016276	0.407540	-0.531030	-0.309459	-0.675391	-3.468907	-75.822153	-115.083468
29105		9.429699	-0.115744	2.347539	-0.055025	-0.019308	0.015567	0.407411	-0.531216	-0.309327	-0.675383	-3.518415	-75.835030	-115.059663
29106		9.412632	-0.132042	2.395265	-0.059182	-0.023573	0.008922	0.407236	-0.531414	-0.309205	-0.675388	-3.554409	-75.850554	-115.052959
29107		9.433745	-0.118568	2.308733	-0.057547	-0.025136	0.006713	0.407054	-0.531611	-0.309098	-0.675392	-3.583949	-75.867018	-115.052125
29108		9.447097	-0.140603	2.341350	-0.056973	-0.018789	0.000548	0.406864	-0.531776	-0.308997	-0.675424	-3.599042	-75.880106	-115.065668
29109		9.418452	-0.166045	2.370391	-0.058398	-0.018938	-0.001693	0.406656	-0.531945	-0.308892	-0.675464	-3.610267	-75.893519	-115.085112
29110		9.427502	-0.158846	2.421730	-0.060378	-0.019546	-0.002418	0.406446	-0.532115	-0.308788	-0.675504	-3.620665	-75.907148	-115.105507
29111		9.448071	-0.207329	2.401692	-0.060812	-0.017915	-0.005454	0.406229	-0.532273	-0.308689	-0.675555	-3.624074	-75.919828	-115.133011
29112		9.450148	-0.175502	2.349835	-0.060694	-0.015824	-0.010006	0.405998	-0.532419	-0.308597	-0.675621	-3.616775	-75.931604	-115.171834
29113		9.477928	-0.184393	2.367580	-0.065298	-0.013700	-0.010036	0.405756	-0.532570	-0.308482	-0.675700	-3.612456	-75.942378	-115.210823
29114		9.469652	-0.193174	2.312886	-0.063224	-0.013940	-0.011529	0.405515	-0.532713	-0.308382	-0.675777	-3.602786	-75.953129	-115.253582
29115		9.440947	-0.217562	2.342321	-0.056540	-0.013354	-0.015311	0.405275	-0.532839	-0.308306	-0.675857	-3.581806	-75.963859	-115.305349
29116		9.470300	-0.193035	2.310243	-0.056535	-0.010402	-0.017625	0.405037	-0.532947	-0.308237	-0.675946	-3.553756	-75.972798	-115.363099
29117		9.400962	-0.251267	2.351781	-0.052815	-0.012203	-0.021347	0.404795	-0.533043	-0.308197	-0.676033	-3.513289	-75.982746	-115.431006
29118		9.453494	-0.205780	2.357496	-0.046251	-0.013709	-0.020576	0.404570	-0.533136	-0.308178	-0.676103	-3.472916	-75.993661	-115.495380
29119		9.450894	-0.206921	2.390597	-0.044824	-0.010610	-0.020644	0.404356	-0.533213	-0.308160	-0.676178	-3.430586	-76.002710	-115.560217
29120		9.464138	-0.226617	2.424066	-0.046804	-0.011217	-0.021369	0.404131	-0.533297	-0.308136	-0.676258	-3.388216	-76.012203	-115.626969
29121		9.431315	-0.157759	2.406912	-0.043292	-0.008361	-0.022942	0.403918	-0.533359	-0.308124	-0.676341	-3.339336	-76.019935	-115.697675
29122		9.435813	-0.185136	2.387500	-0.039228	-0.005039	-0.026031	0.403706	-0.533400	-0.308125	-0.676435	-3.280951	-76.026022	-115.776454
29123		9.466354	-0.190186	2.371755	-0.038914	-0.005822	-0.020750	0.403512	-0.533451	-0.308115	-0.676516	-3.234229	-76.032285	-115.843036
29124		9.505590	-0.187084	2.409169	-0.029594	-0.007953	-0.025249	0.403324	-0.533483	-0.308152	-0.676585	-3.172377	-76.039977	-115.919695
29125		9.497234	-0.193110	2.354816	-0.011180	-0.013467	-0.027464	0.403172	-0.533495	-0.308268	-0.676613	-3.097157	-76.050966	-115.999085
29126		9.455708	-0.194255	2.349579	0.001209	-0.017007	-0.031949	0.403030	-0.533486	-0.308446	-0.676624	-3.003126	-76.063993	-116.090708
29127		9.422876	-0.186646	2.397636	0.005934	-0.014065	-0.038790	0.402881	-0.533444	-0.308653	-0.676652	-2.888859	-76.075266	-116.200310
29128		9.511405	-0.138492	2.476274	-0.010397	-0.005844	-0.040388	0.402696	-0.533408	-0.308791	-0.676728	-2.780381	-76.082061	-116.313659
29129		9.563568	-0.156277	2.392394	-0.024767	0.001791	-0.026960	0.402536	-0.533393	-0.308833	-0.676815	-2.710821	-76.084030	-116.394538
29130		9.559194	-0.127870	2.255021	-0.026750	0.002938	-0.015707	0.402405	-0.533397	-0.308832	-0.676890	-2.667654	-76.085066	-116.450250
29131		9.479793	-0.161824	2.384609	-0.015364	-0.011232	-0.012459	0.402296	-0.533432	-0.308890	-0.676901	-2.627865	-76.094115	-116.495544
29132		9.505991	-0.201941	2.453238	0.002534	0.002277	-0.015079	0.402244	-0.533381	-0.308988	-0.676928	-2.569394	-76.095492	-116.549735
29133		9.458239	-0.209932	2.362111	0.002758	0.003535	-0.021864	0.402170	-0.533315	-0.309102	-0.676972	-2.494938	-76.096322	-116.620490
29134		9.466919	-0.199697	2.415563	-0.002073	-0.000317	-0.024763	0.402069	-0.533267	-0.309216	-0.677018	-2.416942	-76.099389	-116.697514
29135		9.458300	-0.205785	2.362234	-0.005368	-0.000166	-0.017991	0.401987	-0.533235	-0.309300	-0.677053	-2.358142	-76.102188	-116.756277
29136		9.466943	-0.132403	2.349860	0.005817	-0.003776	-0.017218	0.401927	-0.533195	-0.309427	-0.677062	-2.293344	-76.107018	-116.815045
29137		9.467097	-0.130722	2.349336	0.010858	-0.007525	-0.014160	0.401890	-0.533161	-0.309571	-0.677044	-2.234593	-76.113942	-116.864181
29138		9.497650	-0.135099	2.333543	0.017990	-0.005602	-0.017236	0.401860	-0.533102	-0.309743	-0.677030	-2.162846	-76.119786	-116.922920
29139		9.490490	-0.106333	2.386299	0.011520	-0.001998	-0.022535	0.401802	-0.533039	-0.309898	-0.677043	-2.084702	-76.123853	-116.992138
29140		9.505031	-0.091736	2.370564	0.006032	-0.005473	-0.021683	0.401725	-0.532997	-0.310041	-0.677057	-2.009381	-76.129677	-117.061613
29141		9.519586	-0.077192	2.354744	0.007019	-0.003689	-0.022475	0.401648	-0.532949	-0.310182	-0.677076	-1.932733	-76.134581	-117.132665
29142		9.529702	-0.033850	2.357749	0.005591	-0.003834	-0.024716	0.401562	-0.532897	-0.310328	-0.677101	-1.850387	-76.139479	-117.209633
29143		9.557278	-0.039708	2.376659	0.006468	-0.001202	-0.023273	0.401486	-0.532840	-0.310465	-0.677128	-1.772155	-76.142895	-117.282257
29144		9.515378	-0.041192	2.372838	0.007563	-0.000266	-0.026299	0.401406	-0.532769	-0.310615	-0.677162	-1.684657	-76.145724	-117.363366
29145		9.525381	0.002449	2.376140	0.002077	-0.000790	-0.027761	0.401306	-0.532712	-0.310751	-0.677204	-1.598310	-76.149049	-117.446584
29146		9.536946	0.015174	2.394972	-0.002530	-0.001637	-0.025468	0.401199	-0.532668	-0.310867	-0.677249	-1.518540	-76.152593	-117.525688
29147		9.513883	-0.002731	2.357033	-0.004508	0.000703	-0.028509	0.401082	-0.532616	-0.310981	-0.677307	-1.433292	-76.154890	-117.611490
29148		9.513850	-0.000160	2.357166	-0.007582	0.002106	-0.028522	0.400957	-0.532564	-0.311081	-0.677376	-1.349039	-76.156278	-117.698190
29149		9.525326	0.012750	2.376327	-0.004953	0.002343	-0.031539	0.400833	-0.532500	-0.311200	-0.677445	-1.256315	-76.157485	-117.791510
29150		9.505070	-0.002685	2.304376	-0.008028	0.003746	-0.031551	0.400699	-0.532439	-0.311303	-0.677524	-1.165163	-76.157904	-117.885577
29151		9.490595	-0.012107	2.320111	-0.005947	0.003515	-0.033054	0.400569	-0.532372	-0.311419	-0.677601	-1.070213	-76.158377	-117.981821
29152		9.488916	0.021430	2.304767	-0.013075	0.001580	-0.029976	0.400424	-0.532331	-0.311505	-0.677679	-0.985691	-76.159950	-118.072038
29153		9.447022	0.019882	2.300888	-0.015375	-0.004152	-0.031342	0.400261	-0.532313	-0.311597	-0.677747	-0.901069	-76.164835	-118.163781
29154		9.455617	0.030076	2.354355	-0.047645	0.007598	-0.029178	0.400036	-0.532322	-0.311552	-0.677894	-0.837950	-76.162892	-118.252352
29155		9.437831	0.080520	2.339041	-0.055755	0.000921	-0.022992	0.399804	-0.532381	-0.311476	-0.678019	-0.796183	-76.164840	-118.323363
29156		9.475547	0.048838	2.271045	-0.048965	0.005402	-0.019361	0.399605	-0.532415	-0.311405	-0.678142	-0.756736	-76.164045	-118.388333
29157		9.449601	0.027121	2.267708	-0.040183	-0.000109	-0.020039	0.399417	-0.532449	-0.311374	-0.678240	-0.710726	-76.166241	-118.455150
29158		9.470261	-0.018712	2.248684	-0.030297	-0.007636	-0.021435	0.399241	-0.532487	-0.311398	-0.678303	-0.656099	-76.172905	-118.524737
29159		9.458588	0.037695	2.319520	-0.028419	-0.016780	-0.023510	0.399043	-0.532553	-0.311446	-0.678346	-0.596555	-76.184844	-118.599307
29160		9.460662	0.008270	2.333412	-0.043570	-0.017385	-0.023411	0.398809	-0.532647	-0.311449	-0.678408	-0.544992	-76.197072	-118.673562
29161		9.447922	0.030124	2.297081	-0.054439	-0.022245	-0.026246	0.398525	-0.532780	-0.311429	-0.678481	-0.493989	-76.212321	-118.754487
29162		9.475985	0.023118	2.314098	-0.057963	-0.022156	-0.026967	0.398233	-0.532913	-0.311402	-0.678559	-0.442211	-76.227267	-118.837446
29163		9.484584	0.096209	2.299994	-0.058849	-0.024780	-0.028400	0.397931	-0.533056	-0.311382	-0.678633	-0.388268	-76.243833	-118.923038
29164		9.501179	0.079138	2.297846	-0.058423	-0.023460	-0.027667	0.397634	-0.533194	-0.311358	-0.678710	-0.334826	-76.259493	-119.007971
29165		9.491942	0.039461	2.292035	-0.053378	-0.024238	-0.026926	0.397353	-0.533321	-0.311355	-0.678777	-0.278371	-76.275336	-119.092414
29166		9.490738	0.071764	2.274322	-0.049764	-0.025157	-0.028424	0.397073	-0.533446	-0.311366	-0.678837	-0.217882	-76.291929	-119.179483
29167		9.481553	0.032263	2.268322	-0.050318	-0.025627	-0.026903	0.396794	-0.533581	-0.311367	-0.678893	-0.163005	-76.309041	-119.261774
29168		9.467811	0.021142	2.281275	-0.055386	-0.024841	-0.027620	0.396503	-0.533717	-0.311356	-0.678962	-0.107276	-76.325411	-119.347246
29169		9.478061	0.063413	2.282736	-0.061559	-0.022042	-0.027613	0.396194	-0.533859	-0.311314	-0.679050	-0.055455	-76.340180	-119.433262
29170		9.513536	0.030032	2.246269	-0.067265	-0.023859	-0.022279	0.395890	-0.534024	-0.311246	-0.679129	-0.018820	-76.355952	-119.506078
29171		9.509426	0.058965	2.263300	-0.065525	-0.018603	-0.019375	0.395608	-0.534169	-0.311168	-0.679215	0.013699	-76.368490	-119.573540
29172		9.482259	0.067609	2.242371	-0.063874	-0.023096	-0.019301	0.395324	-0.534329	-0.311102	-0.679284	0.045463	-76.383805	-119.639337
29173		9.494208	0.078276	2.259579	-0.056438	-0.016015	-0.021721	0.395068	-0.534444	-0.311057	-0.679363	0.087302	-76.394978	-119.710358
29174		9.535517	0.050017	2.311504	-0.054484	-0.012430	-0.023287	0.394813	-0.534542	-0.311013	-0.679454	0.134039	-76.404156	-119.786017
29175		9.540343	0.022683	2.291416	-0.052530	-0.008845	-0.024852	0.394566	-0.534623	-0.310972	-0.679553	0.184343	-76.411299	-119.864022
29176		9.569010	0.049054	2.260217	-0.050680	-0.004428	-0.024183	0.394330	-0.534686	-0.310927	-0.679661	0.235460	-76.415859	-119.941941
29177		9.566348	0.047616	2.294203	-0.050249	-0.003114	-0.023452	0.394103	-0.534748	-0.310877	-0.679767	0.282164	-76.419949	-120.015086
29178		9.526367	0.013383	2.305503	-0.049818	-0.001799	-0.022720	0.393878	-0.534802	-0.310826	-0.679878	0.330348	-76.422977	-120.089477
29179		9.538730	0.058009	2.275083	-0.046425	0.001920	-0.022054	0.393673	-0.534840	-0.310775	-0.679990	0.376492	-76.424031	-120.159830
29180		9.498596	0.023694	2.287041	-0.044135	0.007646	-0.020658	0.393486	-0.534854	-0.310719	-0.680113	0.422911	-76.421627	-120.229054
29181		9.524140	0.047347	2.291722	-0.039197	0.010668	-0.019996	0.393326	-0.534848	-0.310675	-0.680230	0.468944	-76.417528	-120.294025
29182		9.523908	0.048311	2.292667	-0.036656	0.008793	-0.018492	0.393167	-0.534847	-0.310637	-0.680341	0.514436	-76.414451	-120.357890
29183		9.497920	0.026496	2.289820	-0.032258	0.011332	-0.016321	0.393031	-0.534834	-0.310599	-0.680447	0.555935	-76.410030	-120.415514
29184		9.497653	0.027212	2.290915	-0.034348	0.011548	-0.014803	0.392895	-0.534825	-0.310553	-0.680553	0.593884	-76.405374	-120.470261
29185		9.497397	0.027957	2.291969	-0.023667	0.010471	-0.014889	0.392791	-0.534797	-0.310547	-0.680637	0.636683	-76.401368	-120.523115
29186		9.511355	0.041524	2.277921	-0.023797	0.014272	-0.014938	0.392688	-0.534758	-0.310532	-0.680735	0.680858	-76.395132	-120.578048
29187		9.508247	0.039479	2.313676	-0.024009	0.015926	-0.010465	0.392607	-0.534719	-0.310503	-0.680825	0.712909	-76.388026	-120.619959
29188		9.499161	0.032574	2.261775	-0.021026	0.015360	-0.008238	0.392535	-0.534680	-0.310478	-0.680909	0.742703	-76.381200	-120.658466
29189		9.496049	0.030086	2.297521	-0.018043	0.014793	-0.006012	0.392482	-0.534644	-0.310455	-0.680979	0.766456	-76.374851	-120.688917
29190		9.509980	0.042919	2.283626	-0.011970	0.012833	-0.003797	0.392445	-0.534603	-0.310454	-0.681032	0.790966	-76.369499	-120.716649
29191		9.481207	0.017639	2.315164	-0.003807	0.010659	-0.003098	0.392432	-0.534555	-0.310482	-0.681064	0.817446	-76.365450	-120.741385
29192		9.469489	0.007869	2.297072	-0.000280	0.010576	-0.002382	0.392429	-0.534501	-0.310521	-0.681091	0.845349	-76.361397	-120.765717
29193		9.467419	0.039001	2.282664	-0.002111	0.003187	-0.000770	0.392417	-0.534481	-0.310561	-0.681096	0.866312	-76.361692	-120.784051
29194		9.496863	-0.000350	2.317101	0.002290	0.005723	0.001401	0.392425	-0.534444	-0.310608	-0.681098	0.886914	-76.360448	-120.799355
29195		9.509118	0.043198	2.287209	0.000331	0.002136	0.002963	0.392430	-0.534428	-0.310649	-0.681089	0.901040	-76.361400	-120.809179
29196		9.499484	0.001794	2.283473	0.000661	0.004271	0.005927	0.392447	-0.534407	-0.310681	-0.681081	0.910074	-76.361027	-120.813539
29197		9.522333	0.020867	2.322052	-0.001074	0.003644	0.012689	0.392483	-0.534404	-0.310688	-0.681060	0.900501	-76.361273	-120.799937
29198		9.503311	0.035229	2.356809	0.003998	0.002864	0.013401	0.392532	-0.534393	-0.310715	-0.681028	0.893851	-76.361773	-120.786191
29199		9.474455	0.009840	2.231003	0.021408	-0.000518	0.011785	0.392623	-0.534356	-0.310812	-0.680960	0.899136	-76.364288	-120.773912
29200		9.453655	0.056125	2.250213	0.037814	-0.002719	0.008669	0.392738	-0.534290	-0.310977	-0.680870	0.923244	-76.367944	-120.771879
29201		9.454703	-0.008129	2.314445	0.031055	-0.002055	-0.001757	0.392806	-0.534219	-0.311146	-0.680810	0.966132	-76.371225	-120.792667
29202		9.518711	-0.016907	2.405513	0.011250	-0.003569	0.000694	0.392821	-0.534195	-0.311243	-0.680775	0.993917	-76.375291	-120.810078
29203		9.549961	0.010241	2.341036	-0.014624	0.009088	0.017981	0.392845	-0.534207	-0.311179	-0.680781	0.964983	-76.372197	-120.784731
29204		9.482006	0.078792	2.220640	-0.017353	0.014265	0.032913	0.392922	-0.534229	-0.311058	-0.680775	0.899556	-76.366350	-120.723093
29205		9.439936	0.070995	2.217756	-0.014450	0.003960	0.032279	0.392990	-0.534279	-0.310970	-0.680737	0.837318	-76.366410	-120.662730
29206		9.436152	0.031352	2.301719	-0.007730	0.001654	0.030753	0.393065	-0.534322	-0.310912	-0.680686	0.782991	-76.367739	-120.606840
29207		9.424613	0.018523	2.282894	0.004916	0.004156	0.029108	0.393172	-0.534328	-0.310897	-0.680627	0.740116	-76.367485	-120.555395
29208		9.415916	0.008958	2.229575	0.012412	-0.002298	0.023884	0.393271	-0.534334	-0.310934	-0.680548	0.713659	-76.371010	-120.516308
29209		9.468486	-0.012054	2.301183	0.015507	-0.011286	0.016487	0.393339	-0.534353	-0.311017	-0.680455	0.706140	-76.379587	-120.495114
29210		9.496389	-0.021454	2.318943	0.023770	-0.014294	0.014956	0.393420	-0.534363	-0.311140	-0.680344	0.707610	-76.389918	-120.478067
29211		9.534964	0.044160	2.291121	0.027944	-0.014726	0.011929	0.393502	-0.534362	-0.311286	-0.680231	0.718425	-76.400401	-120.468070
29212		9.504881	0.049302	2.305146	0.026835	-0.012716	0.012663	0.393586	-0.534357	-0.311423	-0.680124	0.727020	-76.409812	-120.456549
29213		9.503312	0.079706	2.288990	0.026709	-0.008914	0.012614	0.393682	-0.534337	-0.311555	-0.680023	0.734888	-76.417008	-120.443322
29214		9.508083	0.050872	2.269131	0.030653	-0.004718	0.011772	0.393785	-0.534296	-0.311691	-0.679933	0.747540	-76.421832	-120.433724
29215		9.493890	0.037688	2.283979	0.029001	-0.003189	0.014015	0.393899	-0.534254	-0.311816	-0.679843	0.753975	-76.425647	-120.417910
29216		9.514215	0.054216	2.356079	0.024386	-0.004063	0.016319	0.394002	-0.534230	-0.311918	-0.679756	0.752222	-76.430130	-120.397188
29217		9.519820	0.058272	2.287311	0.024050	0.001397	0.020740	0.394132	-0.534197	-0.311994	-0.679672	0.737380	-76.431559	-120.362949
29218		9.518788	0.023196	2.337030	0.021400	0.004107	0.021476	0.394257	-0.534159	-0.312055	-0.679601	0.721415	-76.431396	-120.329366
29219		9.524254	0.026934	2.268837	0.023924	0.005200	0.020690	0.394393	-0.534112	-0.312126	-0.679526	0.707002	-76.430669	-120.295399
29220		9.508048	0.043682	2.269427	0.023270	0.005551	0.024440	0.394536	-0.534070	-0.312183	-0.679450	0.685035	-76.429695	-120.254540
29221		9.482142	0.019440	2.266004	0.024478	0.002712	0.021477	0.394666	-0.534031	-0.312257	-0.679371	0.671367	-76.430251	-120.221542
29222		9.506111	0.071543	2.254991	0.023916	0.005203	0.020697	0.394797	-0.533983	-0.312327	-0.679300	0.658666	-76.429447	-120.189834
29223		9.470427	0.006475	2.247789	0.019846	0.004813	0.021490	0.394918	-0.533950	-0.312378	-0.679233	0.640350	-76.428982	-120.155268
29224		9.465779	0.033207	2.267312	0.017318	0.003723	0.022279	0.395034	-0.533923	-0.312424	-0.679166	0.620156	-76.429030	-120.119740
29225		9.477225	0.041233	2.286713	0.012597	0.003687	0.026819	0.395157	-0.533911	-0.312444	-0.679095	0.586254	-76.429076	-120.072400
29226		9.484466	0.013266	2.233735	0.014125	0.005957	0.024525	0.395276	-0.533886	-0.312468	-0.679033	0.558850	-76.427850	-120.031337
29227		9.505637	0.062097	2.257267	0.012474	0.007490	0.026765	0.395401	-0.533864	-0.312477	-0.678974	0.524282	-76.425785	-119.983968
29228		9.517032	0.069885	2.276933	0.010053	0.005570	0.025318	0.395511	-0.533850	-0.312487	-0.678917	0.492686	-76.424773	-119.940991
29229		9.512844	0.031229	2.362026	-0.001294	0.020576	0.031929	0.395638	-0.533818	-0.312410	-0.678903	0.437675	-76.415233	-119.880509
29230		9.529543	0.043369	2.314355	0.005853	0.019563	0.031139	0.395779	-0.533774	-0.312362	-0.678877	0.389689	-76.406212	-119.823143
29231		9.495638	0.044236	2.209623	0.018492	0.022035	0.029503	0.395953	-0.533694	-0.312356	-0.678841	0.351986	-76.395800	-119.768869
29232		9.465421	-0.016580	2.291208	0.031486	0.010136	0.030338	0.396144	-0.533630	-0.312416	-0.678753	0.320835	-76.392159	-119.713710
29233		9.515795	-0.007132	2.349291	0.022461	0.009711	0.028170	0.396305	-0.533584	-0.312448	-0.678680	0.287516	-76.388817	-119.661880
29234		9.466601	-0.051757	2.308375	0.021465	0.010891	0.026662	0.396459	-0.533531	-0.312483	-0.678616	0.259358	-76.384718	-119.615706
29235		9.487717	-0.002733	2.332393	0.012436	0.013434	0.022193	0.396579	-0.533485	-0.312490	-0.678579	0.233657	-76.379453	-119.577555
29236		9.487418	-0.004789	2.333605	0.007271	0.012099	0.026005	0.396694	-0.533455	-0.312475	-0.678542	0.198957	-76.374651	-119.533016
29237		9.499915	0.036390	2.304139	0.008370	0.010086	0.025281	0.396809	-0.533430	-0.312469	-0.678497	0.165163	-76.371120	-119.488666
29238		9.485300	0.021502	2.320374	0.007711	0.010446	0.029033	0.396933	-0.533409	-0.312451	-0.678449	0.123623	-76.367256	-119.436827
29239		9.485056	0.018915	2.321392	0.009688	0.011056	0.029761	0.397067	-0.533389	-0.312434	-0.678395	0.078743	-76.363349	-119.380672
29240		9.489249	-0.011990	2.303464	0.009242	0.012712	0.026739	0.397191	-0.533354	-0.312422	-0.678355	0.043544	-76.358168	-119.334455
29241		9.487322	0.016519	2.289595	0.007039	0.016742	0.028194	0.397320	-0.533315	-0.312389	-0.678325	0.001868	-76.350821	-119.283247
29242		9.491454	-0.014423	2.271897	0.003190	0.011725	0.026803	0.397427	-0.533296	-0.312359	-0.678291	-0.036878	-76.346191	-119.236945
29243		9.460836	-0.010809	2.288066	0.005389	0.007696	0.025352	0.397530	-0.533283	-0.312349	-0.678245	-0.071141	-76.343897	-119.193619
29244		9.502597	-0.009328	2.292542	0.003738	0.006271	0.029891	0.397640	-0.533286	-0.312324	-0.678190	-0.116833	-76.342373	-119.139846
29245		9.502462	-0.011885	2.293092	0.002417	0.005303	0.025415	0.397728	-0.533293	-0.312302	-0.678143	-0.155173	-76.341623	-119.095148
29246		9.499450	-0.016791	2.327890	0.001865	0.004829	0.026929	0.397820	-0.533300	-0.312281	-0.678093	-0.194948	-76.340913	-119.048566
29247		9.500715	0.014117	2.278696	0.001424	0.003519	0.026204	0.397905	-0.533313	-0.312261	-0.678043	-0.233785	-76.341053	-119.003728
29248		9.505045	-0.016549	2.260023	0.004612	0.004239	0.021668	0.397986	-0.533309	-0.312264	-0.677997	-0.259585	-76.340681	-118.969909
29249		9.473091	0.018288	2.260195	0.002080	0.000193	0.024754	0.398061	-0.533332	-0.312254	-0.677940	-0.295764	-76.342786	-118.927735
29250		9.458580	0.003674	2.275761	-0.000007	0.006354	0.021668	0.398133	-0.533329	-0.312237	-0.677907	-0.324186	-76.341193	-118.893942
29251		9.516320	-0.012475	2.280161	0.006923	0.005299	0.013381	0.398198	-0.533301	-0.312271	-0.677875	-0.329231	-76.340195	-118.879544
29252		9.500287	0.004876	2.280519	0.010988	0.002710	0.014897	0.398270	-0.533279	-0.312317	-0.677829	-0.335434	-76.340709	-118.862133
29253		9.504593	-0.024632	2.261851	0.012529	0.004970	0.012599	0.398347	-0.533238	-0.312374	-0.677790	-0.334391	-76.339755	-118.850482
29254		9.485649	-0.009558	2.296557	0.013516	0.003791	0.014114	0.398425	-0.533205	-0.312429	-0.677745	-0.337283	-76.339653	-118.834988
29255		9.485591	-0.010528	2.296793	0.012634	0.001169	0.012662	0.398497	-0.533175	-0.312496	-0.677695	-0.335828	-76.340867	-118.823386
29256		9.501479	-0.029879	2.296997	0.011646	0.002348	0.011148	0.398558	-0.533146	-0.312555	-0.677654	-0.332819	-76.341601	-118.815067
29257		9.489896	-0.040878	2.278075	0.004496	0.000421	0.014230	0.398611	-0.533146	-0.312583	-0.677611	-0.343808	-76.343560	-118.796548
29258		9.485501	-0.013739	2.297145	0.002406	0.000654	0.015742	0.398661	-0.533148	-0.312602	-0.677571	-0.356955	-76.345248	-118.777051
29259		9.525963	-0.044299	2.350682	0.007688	0.001136	0.009693	0.398710	-0.533125	-0.312659	-0.677534	-0.351964	-76.346551	-118.772039
29260		9.485391	-0.015690	2.297589	0.009449	0.006382	0.012600	0.398777	-0.533089	-0.312699	-0.677505	-0.353585	-76.344968	-118.760251
29261		9.521386	-0.017572	2.370508	0.010106	0.003053	0.011149	0.398842	-0.533058	-0.312755	-0.677465	-0.352134	-76.345181	-118.750162
29262		9.489552	-0.045865	2.279410	0.007581	0.004938	0.009633	0.398892	-0.533026	-0.312799	-0.677440	-0.347848	-76.344436	-118.745554
29263		9.454716	-0.012034	2.313991	0.004609	0.002549	0.009692	0.398927	-0.533010	-0.312836	-0.677415	-0.345914	-76.345132	-118.740685
29264		9.470573	-0.031443	2.314263	0.000541	0.002177	0.010475	0.398956	-0.533003	-0.312859	-0.677393	-0.347686	-76.345966	-118.733993
29265		9.440186	-0.026296	2.329480	-0.004849	-0.002130	0.009078	0.398961	-0.533017	-0.312878	-0.677370	-0.348949	-76.349226	-118.730757
29266		9.470586	-0.033443	2.314182	-0.000452	0.000392	0.011262	0.398987	-0.533020	-0.312900	-0.677343	-0.353175	-76.351080	-118.722125
29267		9.473524	-0.031953	2.279770	-0.002760	-0.002363	0.007567	0.398987	-0.533034	-0.312925	-0.677320	-0.351403	-76.354682	-118.721779
29268		9.489523	-0.051340	2.279414	0.002287	-0.006134	0.010601	0.399008	-0.533051	-0.312971	-0.677273	-0.352599	-76.360277	-118.714650
29269		9.489655	-0.052126	2.278849	0.001412	-0.005794	0.006846	0.399015	-0.533063	-0.313023	-0.677235	-0.345155	-76.365687	-118.716815
29270		9.498428	-0.045280	2.331677	0.002838	-0.005661	0.009088	0.399033	-0.533076	-0.313074	-0.677191	-0.342456	-76.371017	-118.713369
29271		9.531818	-0.049673	2.281707	0.004383	-0.003405	0.006788	0.399055	-0.533074	-0.313133	-0.677152	-0.334612	-76.375162	-118.713874
29272		9.505937	-0.072675	2.277252	0.002500	-0.010774	0.008424	0.399062	-0.533104	-0.313194	-0.677096	-0.330607	-76.383423	-118.711973
29273		9.503202	-0.075878	2.310825	0.001300	-0.004954	0.009087	0.399073	-0.533122	-0.313233	-0.677058	-0.329916	-76.388507	-118.708409
29274		9.484516	-0.060758	2.344590	-0.003321	-0.005797	0.011385	0.399082	-0.533151	-0.313257	-0.677019	-0.336187	-76.393907	-118.699367
29275		9.529490	-0.055685	2.313536	-0.003321	-0.005796	0.011385	0.399094	-0.533179	-0.313281	-0.676977	-0.343300	-76.399347	-118.689117
29276		9.503532	-0.079178	2.309357	-0.005403	-0.002599	0.010595	0.399100	-0.533200	-0.313294	-0.676951	-0.348861	-76.402917	-118.682033
29277		9.518081	-0.067979	2.293750	-0.006397	-0.004382	0.011383	0.399109	-0.533227	-0.313310	-0.676918	-0.356492	-76.407427	-118.672382
29278		9.460385	-0.054564	2.289305	-0.004869	-0.008052	0.013687	0.399119	-0.533270	-0.313327	-0.676870	-0.369167	-76.414109	-118.657665
29279		9.476495	-0.074327	2.288378	-0.004105	-0.012220	0.009995	0.399113	-0.533322	-0.313363	-0.676816	-0.373995	-76.423247	-118.650622
29280		9.473947	-0.013550	2.256641	-0.005643	-0.011513	0.009995	0.399102	-0.533373	-0.313394	-0.676768	-0.378429	-76.431925	-118.644839
29281		9.445284	-0.039491	2.285962	-0.009170	-0.014372	0.011569	0.399085	-0.533442	-0.313416	-0.676714	-0.388979	-76.442203	-118.634570
29282		9.487589	-0.036768	2.288252	-0.009392	-0.017360	0.006362	0.399043	-0.533514	-0.313456	-0.676663	-0.387037	-76.454245	-118.637556
29283		9.512609	-0.048954	2.183169	0.006844	-0.027738	0.012431	0.399052	-0.533598	-0.313557	-0.676545	-0.390693	-76.472231	-118.624785
29284		9.458386	0.032152	2.234053	0.012577	-0.022990	0.004799	0.399054	-0.533643	-0.313687	-0.676448	-0.372516	-76.487506	-118.631522
29285		9.502262	-0.058809	2.315699	0.010157	-0.026609	-0.008645	0.399004	-0.533683	-0.313853	-0.676369	-0.324658	-76.504897	-118.669593
29286		9.596896	-0.074071	2.389579	-0.007422	-0.021421	-0.002590	0.398930	-0.533751	-0.313931	-0.676322	-0.300176	-76.519292	-118.694597
29287		9.604354	-0.036606	2.269937	-0.020471	-0.006925	0.010789	0.398890	-0.533820	-0.313898	-0.676307	-0.316511	-76.525525	-118.685714
29288		9.536479	-0.000306	2.196934	-0.019812	-0.005588	0.019028	0.398881	-0.533893	-0.313845	-0.676279	-0.350603	-76.530779	-118.657785
29289		9.481697	-0.049501	2.222806	-0.021489	-0.014631	0.016188	0.398841	-0.533999	-0.313808	-0.676236	-0.380272	-76.541322	-118.636089
29290		9.493563	-0.106152	2.305526	-0.017303	-0.010437	0.022850	0.398845	-0.534089	-0.313764	-0.676183	-0.422224	-76.549332	-118.598601
29291		9.457502	-0.107366	2.232112	-0.006092	-0.011120	0.021272	0.398873	-0.534156	-0.313765	-0.676114	-0.453252	-76.557733	-118.565396
29292		9.473672	-0.128074	2.230675	-0.002381	-0.018827	0.022123	0.398901	-0.534244	-0.313789	-0.676016	-0.485167	-76.570543	-118.529441
29293		9.474142	-0.129625	2.228587	0.009802	-0.025356	0.012365	0.398920	-0.534312	-0.313896	-0.675901	-0.486380	-76.587050	-118.517406
29294		9.505049	-0.136518	2.210703	0.011107	-0.029050	0.007158	0.398917	-0.534384	-0.314027	-0.675786	-0.474890	-76.605787	-118.518132
29295		9.501476	-0.108557	2.227011	0.009016	-0.028813	0.008676	0.398913	-0.534460	-0.314147	-0.675672	-0.467137	-76.624231	-118.516108
29296		9.482077	-0.061916	2.243303	0.011209	-0.029887	0.004921	0.398902	-0.534531	-0.314285	-0.675558	-0.450178	-76.643458	-118.522394
29297		9.514387	-0.035331	2.175672	0.005833	-0.026554	0.010924	0.398906	-0.534609	-0.314386	-0.675446	-0.450879	-76.660826	-118.512923
29298		9.512174	-0.038602	2.207524	0.011881	-0.025587	0.010858	0.398923	-0.534674	-0.314502	-0.675331	-0.447779	-76.677563	-118.504570
29299		9.538842	-0.017029	2.208824	0.014412	-0.024513	0.010068	0.398954	-0.534725	-0.314632	-0.675212	-0.441862	-76.693645	-118.496409
29300		9.535186	0.010942	2.225664	0.014421	-0.021551	0.007763	0.398974	-0.534766	-0.314757	-0.675110	-0.429735	-76.708083	-118.495838
29301		9.567301	-0.026648	2.223757	0.009273	-0.016935	0.006978	0.398980	-0.534803	-0.314855	-0.675032	-0.418272	-76.719890	-118.498274
29302		9.540087	-0.018496	2.203431	0.006108	-0.011717	0.006916	0.398990	-0.534826	-0.314934	-0.674971	-0.408655	-76.728697	-118.500018
29303		9.579552	-0.017770	2.240329	0.003036	-0.010299	0.006919	0.398998	-0.534845	-0.315006	-0.674917	-0.399486	-76.736492	-118.502107
29304		9.556337	-0.037986	2.201606	0.008112	-0.005194	0.003025	0.399011	-0.534836	-0.315089	-0.674877	-0.379136	-76.741577	-118.513698
29305		9.556408	-0.038363	2.201294	0.003296	-0.001388	0.007512	0.399032	-0.534832	-0.315137	-0.674846	-0.373135	-76.744593	-118.513421
29306		9.528893	-0.030200	2.182250	0.007915	-0.000554	0.005200	0.399059	-0.534811	-0.315204	-0.674815	-0.358101	-76.747011	-118.519666
29307		9.511707	-0.045381	2.231952	0.006274	0.000994	0.007443	0.399094	-0.534791	-0.315259	-0.674785	-0.349732	-76.748517	-118.519675
29308		9.526078	-0.033799	2.216882	-0.003489	0.004777	0.008967	0.399111	-0.534780	-0.315268	-0.674779	-0.350315	-76.747866	-118.516588
29309		9.510136	-0.016146	2.217369	-0.003490	0.004777	0.008968	0.399127	-0.534768	-0.315278	-0.674775	-0.349196	-76.747071	-118.515159
29310		9.510000	-0.017135	2.217948	-0.002598	0.007398	0.010417	0.399155	-0.534749	-0.315281	-0.674771	-0.352755	-76.744913	-118.508491
29311		9.502261	-0.056474	2.180684	-0.005013	0.008447	0.006662	0.399170	-0.534727	-0.315282	-0.674779	-0.350258	-76.742236	-118.509268
29312		9.546069	-0.020163	2.291914	-0.013793	0.011052	0.009702	0.399172	-0.534717	-0.315242	-0.674805	-0.358435	-76.737987	-118.504445
29313		9.518139	-0.013138	2.274648	-0.018454	0.024611	0.017026	0.399206	-0.534685	-0.315138	-0.674859	-0.387141	-76.726092	-118.481569
29314		9.523174	-0.010305	2.208068	-0.008260	0.019175	0.018536	0.399266	-0.534650	-0.315076	-0.674880	-0.413435	-76.717153	-118.454873
29315		9.487622	-0.041762	2.153151	-0.001198	0.024879	0.015370	0.399346	-0.534578	-0.315037	-0.674908	-0.428923	-76.705069	-118.434642
29316		9.509174	-0.056606	2.242466	0.007304	0.010400	0.014043	0.399418	-0.534535	-0.315057	-0.674890	-0.435511	-76.701173	-118.419030
29317		9.552214	-0.084952	2.262557	0.010835	0.013252	0.012461	0.399505	-0.534472	-0.315091	-0.674873	-0.437209	-76.695718	-118.405552
29318		9.505776	-0.060986	2.279314	0.006780	0.015852	0.010948	0.399574	-0.534407	-0.315106	-0.674876	-0.436483	-76.688712	-118.397763
29319		9.512340	-0.087975	2.227446	0.001281	0.015363	0.009499	0.399626	-0.534351	-0.315111	-0.674888	-0.435755	-76.681964	-118.392668
29320		9.538144	-0.066815	2.232623	-0.002896	0.015843	0.012535	0.399674	-0.534307	-0.315090	-0.674903	-0.444404	-76.674956	-118.380942
29321		9.503406	-0.033264	2.268297	0.000711	0.011932	0.013325	0.399731	-0.534272	-0.315088	-0.674899	-0.453643	-76.670261	-118.366218
29322		9.527955	0.018653	2.257952	-0.003343	0.014534	0.011810	0.399774	-0.534232	-0.315070	-0.674913	-0.460803	-76.664006	-118.356284
29323		9.531668	-0.011150	2.240682	-0.002098	0.022266	0.013925	0.399843	-0.534167	-0.315037	-0.674939	-0.472616	-76.653358	-118.340190
29324		9.515402	0.006248	2.242666	0.002615	0.019295	0.011683	0.399909	-0.534100	-0.315031	-0.674956	-0.475940	-76.644376	-118.330690
29325		9.543668	-0.034293	2.279083	0.005611	0.024636	0.009313	0.399988	-0.534003	-0.315032	-0.674985	-0.472048	-76.632356	-118.326126
29326		9.545934	-0.032590	2.247167	0.004628	0.025817	0.007799	0.400056	-0.533904	-0.315029	-0.675025	-0.464716	-76.619654	-118.326393
29327		9.542511	-0.035692	2.283902	0.005607	0.024637	0.009317	0.400127	-0.533810	-0.315027	-0.675058	-0.460209	-76.607673	-118.323556
29328		9.526135	-0.017960	2.286313	0.003961	0.026190	0.011561	0.400206	-0.533716	-0.315011	-0.675092	-0.462309	-76.594741	-118.314520
29329		9.525500	-0.018860	2.288950	0.003978	0.029152	0.009257	0.400278	-0.533613	-0.314990	-0.675141	-0.459552	-76.580247	-118.311486
29330		9.501559	-0.039581	2.253551	0.002421	0.026903	0.011564	0.400354	-0.533521	-0.314968	-0.675180	-0.462510	-76.566906	-118.302474
29331		9.485220	-0.021974	2.255835	0.002065	0.021792	0.010902	0.400416	-0.533447	-0.314953	-0.675209	-0.464248	-76.556503	-118.295608
29332		9.470146	-0.035157	2.273353	0.004064	0.025352	0.009326	0.400487	-0.533352	-0.314945	-0.675245	-0.460915	-76.544061	-118.292096
29333		9.487066	-0.021346	2.225953	0.003597	0.021082	0.010906	0.400556	-0.533278	-0.314938	-0.675265	-0.462938	-76.534199	-118.283412
29334		9.472066	-0.034632	2.243141	0.006111	0.019190	0.012427	0.400633	-0.533205	-0.314941	-0.675276	-0.465961	-76.525273	-118.272156
29335		9.467498	-0.007213	2.263914	0.000059	0.018235	0.012484	0.400692	-0.533149	-0.314923	-0.675293	-0.473431	-76.516924	-118.260234
29336		9.478719	0.001419	2.284672	-0.004013	0.017879	0.013270	0.400743	-0.533103	-0.314892	-0.675314	-0.484272	-76.508745	-118.246903
29337		9.512759	-0.034602	2.252274	0.001614	0.020485	0.010183	0.400798	-0.533031	-0.314884	-0.675342	-0.482770	-76.499076	-118.243343
29338		9.520975	-0.028124	2.307605	-0.000479	0.020728	0.011698	0.400858	-0.532965	-0.314863	-0.675368	-0.487755	-76.489272	-118.233951
29339		9.535032	-0.017040	2.294451	-0.006621	0.023577	0.011691	0.400899	-0.532905	-0.314812	-0.675415	-0.496054	-76.478001	-118.225795
29340		9.480894	-0.031662	2.273833	-0.007602	0.024759	0.010174	0.400941	-0.532838	-0.314764	-0.675466	-0.501384	-76.465894	-118.220246
29341		9.509510	-0.008295	2.245593	-0.012119	0.023094	0.010231	0.400968	-0.532788	-0.314701	-0.675518	-0.511212	-76.454955	-118.213104
29342		9.478656	-0.003146	2.262910	-0.012564	0.021784	0.009504	0.400989	-0.532740	-0.314643	-0.675571	-0.517832	-76.444556	-118.209152
29343		9.481159	-0.001901	2.230599	-0.013010	0.020474	0.008777	0.401009	-0.532695	-0.314589	-0.675619	-0.524049	-76.434948	-118.205490
29344		9.463123	-0.017525	2.282074	-0.012340	0.020103	0.005018	0.401013	-0.532644	-0.314548	-0.675676	-0.519918	-76.425535	-118.212465
29345		9.507586	-0.012249	2.253707	-0.008803	0.022951	0.003449	0.401029	-0.532575	-0.314518	-0.675735	-0.511007	-76.414668	-118.221899
29346		9.489547	-0.027570	2.305079	-0.010716	0.015589	0.005082	0.401031	-0.532537	-0.314491	-0.675776	-0.506211	-76.407841	-118.228601
29347		9.447224	-0.031905	2.302646	-0.016325	0.015947	0.005861	0.401020	-0.532508	-0.314444	-0.675827	-0.505251	-76.400792	-118.234593
29348		9.474135	-0.041672	2.323583	-0.021025	0.021890	0.005797	0.401007	-0.532470	-0.314368	-0.675901	-0.507930	-76.390351	-118.239683
29349		9.469533	-0.014234	2.344376	-0.020402	0.015595	0.006645	0.400988	-0.532455	-0.314303	-0.675954	-0.512950	-76.383568	-118.242071
29350		9.502533	-0.019234	2.296514	-0.020938	0.018089	0.005859	0.400970	-0.532429	-0.314234	-0.676017	-0.515807	-76.375305	-118.246927
29351		9.506288	-0.048852	2.279170	-0.021499	0.017620	0.007376	0.400959	-0.532409	-0.314162	-0.676073	-0.523734	-76.367375	-118.246308
29352		9.516300	-0.009236	2.284828	-0.023571	0.020828	0.006588	0.400940	-0.532381	-0.314077	-0.676146	-0.529763	-76.357539	-118.249453
29353		9.473913	-0.014064	2.282645	-0.029652	0.016915	0.008939	0.400908	-0.532382	-0.313974	-0.676212	-0.545372	-76.350003	-118.246129
29354		9.460800	0.005474	2.250013	-0.032285	0.019653	0.009669	0.400874	-0.532380	-0.313854	-0.676289	-0.563669	-76.340824	-118.241787
29355		9.506551	-0.020859	2.236520	-0.022836	0.013694	0.005192	0.400843	-0.532372	-0.313789	-0.676344	-0.566459	-76.335040	-118.247621
29356		9.486534	-0.069949	2.337046	-0.018294	0.018323	0.002846	0.400821	-0.532336	-0.313737	-0.676409	-0.560687	-76.326661	-118.259799
29357		9.489183	-0.068136	2.304439	-0.016759	0.017610	0.002850	0.400801	-0.532301	-0.313690	-0.676471	-0.554538	-76.318740	-118.271716
29358		9.511898	-0.048918	2.344399	-0.017059	0.018428	-0.002427	0.400765	-0.532253	-0.313656	-0.676545	-0.535677	-76.310328	-118.296639
29359		9.484171	-0.040397	2.326911	-0.018181	0.017486	0.000604	0.400732	-0.532218	-0.313610	-0.676614	-0.524389	-76.302509	-118.314865
29360		9.499505	-0.059632	2.328625	-0.020280	0.017730	0.002118	0.400702	-0.532187	-0.313554	-0.676682	-0.518111	-76.294472	-118.328737
29361		9.516831	-0.045394	2.280876	-0.023237	0.018321	-0.000131	0.400652	-0.532161	-0.313488	-0.676763	-0.509777	-76.286326	-118.347483
29362		9.501777	-0.058195	2.297685	-0.016649	0.016774	0.000611	0.400625	-0.532123	-0.313450	-0.676826	-0.497929	-76.278842	-118.364949
29363		9.482527	-0.042442	2.333564	-0.014110	0.017842	-0.000167	0.400604	-0.532077	-0.313420	-0.676889	-0.483776	-76.270862	-118.383439
29364		9.482063	-0.042850	2.335441	-0.016302	0.021890	0.001297	0.400588	-0.532023	-0.313371	-0.676964	-0.473272	-76.260442	-118.399318
29365		9.484724	-0.040802	2.303009	-0.018190	0.017491	0.000612	0.400551	-0.531993	-0.313319	-0.677033	-0.464463	-76.252862	-118.416073
29366		9.500071	-0.060191	2.304676	-0.021413	0.016789	0.005154	0.400526	-0.531972	-0.313253	-0.677095	-0.466044	-76.245346	-118.422526
29367		9.479741	-0.013965	2.325289	-0.021295	0.015953	0.002908	0.400495	-0.531948	-0.313197	-0.677157	-0.461977	-76.238276	-118.434270
29368		9.483580	-0.043173	2.307674	-0.021297	0.015954	0.002910	0.400462	-0.531926	-0.313140	-0.677221	-0.458268	-76.231249	-118.446101
29369		9.494717	-0.033946	2.328448	-0.017634	0.017967	-0.000894	0.400429	-0.531887	-0.313098	-0.677291	-0.444865	-76.223256	-118.466024
29370		9.467016	-0.025410	2.310988	-0.017194	0.019277	-0.000158	0.400402	-0.531841	-0.313056	-0.677363	-0.431606	-76.214337	-118.485270
29371		9.481308	-0.013416	2.297463	-0.017544	0.014163	-0.000845	0.400360	-0.531813	-0.313022	-0.677424	-0.417047	-76.208495	-118.506521
29372		9.496650	-0.032464	2.299156	-0.020273	0.020707	-0.000158	0.400326	-0.531768	-0.312967	-0.677505	-0.405566	-76.198755	-118.525752
29373		9.454288	-0.036433	2.296747	-0.022723	0.015836	0.000666	0.400278	-0.531751	-0.312905	-0.677576	-0.399302	-76.192003	-118.541933
29374		9.465417	-0.027211	2.317508	-0.018204	0.017498	0.000628	0.400248	-0.531714	-0.312860	-0.677643	-0.388553	-76.184097	-118.559192
29375		9.483941	-0.043727	2.284885	-0.016667	0.016784	0.000631	0.400221	-0.531676	-0.312823	-0.677706	-0.376836	-76.176554	-118.576528
29376		9.476179	-0.018194	2.339735	-0.010393	0.013089	-0.001611	0.400197	-0.531635	-0.312820	-0.677754	-0.356499	-76.171180	-118.599053
29377		9.483335	-0.044184	2.287392	-0.010422	0.010119	0.000682	0.400179	-0.531605	-0.312819	-0.677788	-0.341152	-76.167433	-118.615834
29378		9.460924	-0.030806	2.357073	-0.003772	0.014510	-0.003159	0.400170	-0.531543	-0.312840	-0.677833	-0.313431	-76.161247	-118.642058
29379		9.494232	-0.034428	2.309092	-0.004898	0.013563	-0.000133	0.400167	-0.531491	-0.312852	-0.677870	-0.293328	-76.155568	-118.660866
29380		9.462392	0.002889	2.310460	-0.002892	0.017128	-0.001686	0.400169	-0.531420	-0.312866	-0.677917	-0.268541	-76.147872	-118.683550
29381		9.458815	0.000322	2.346245	-0.005875	0.014752	-0.001647	0.400163	-0.531365	-0.312875	-0.677961	-0.246541	-76.141567	-118.704890
29382		9.458484	0.000099	2.347579	-0.011083	0.013452	0.002152	0.400150	-0.531330	-0.312859	-0.678003	-0.235439	-76.135964	-118.718314
29383		9.477170	-0.016306	2.314453	-0.003390	0.009877	0.002162	0.400157	-0.531289	-0.312880	-0.678022	-0.219765	-76.132392	-118.731136
29384		9.440485	0.016494	2.227222	0.005525	0.003444	-0.000812	0.400163	-0.531250	-0.312948	-0.678017	-0.192370	-76.132528	-118.751540
29385		9.416064	-0.003328	2.345326	0.003793	0.001181	-0.006048	0.400147	-0.531214	-0.313029	-0.678016	-0.155362	-76.134202	-118.782377
29386		9.436879	-0.016923	2.433035	-0.005690	-0.003451	-0.006712	0.400092	-0.531212	-0.313089	-0.678023	-0.120729	-76.138291	-118.816854
29387		9.534277	0.033247	2.411826	-0.028797	0.014893	0.000703	0.400028	-0.531209	-0.313009	-0.678100	-0.117955	-76.132038	-118.832800
29388		9.468364	0.072181	2.184159	-0.020596	0.016439	0.008933	0.400018	-0.531193	-0.312937	-0.678152	-0.128078	-76.124709	-118.829975
29389		9.454514	0.027412	2.215075	-0.028256	-0.000325	0.008393	0.399953	-0.531254	-0.312867	-0.678175	-0.142661	-76.127143	-118.828386
29390		9.424801	-0.030581	2.416090	-0.015850	-0.009852	0.008446	0.399913	-0.531317	-0.312864	-0.678150	-0.149079	-76.134878	-118.826577
29391		9.392689	-0.027111	2.308489	-0.004922	-0.002132	0.009073	0.399920	-0.531335	-0.312881	-0.678124	-0.152595	-76.138392	-118.821060
29392		9.395024	0.006162	2.258580	0.004806	-0.009759	0.000083	0.399906	-0.531344	-0.312971	-0.678084	-0.127754	-76.146086	-118.839258
29393		9.417165	-0.038830	2.360108	0.005242	-0.019039	-0.004335	0.399867	-0.531374	-0.313094	-0.678027	-0.092000	-76.159014	-118.867946
29394		9.442854	0.014902	2.347103	0.004454	-0.025461	-0.005767	0.399808	-0.531427	-0.313230	-0.677958	-0.053723	-76.175703	-118.900186
29395		9.491721	0.024148	2.280651	0.003137	-0.018797	-0.002821	0.399769	-0.531463	-0.313341	-0.677900	-0.023270	-76.188534	-118.924600
29396		9.495346	0.027321	2.244595	0.009320	-0.018685	-0.005107	0.399736	-0.531485	-0.313478	-0.677840	0.016403	-76.201332	-118.955403
29397		9.487273	0.084770	2.281246	0.016796	-0.017620	-0.002893	0.399729	-0.531490	-0.313631	-0.677768	0.056465	-76.213370	-118.982445
29398		9.473992	0.042210	2.309878	0.020904	-0.014295	-0.005957	0.399731	-0.531472	-0.313801	-0.677703	0.104876	-76.223641	-119.015409
29399		9.516252	0.046603	2.312705	0.024298	-0.013582	-0.002968	0.399747	-0.531454	-0.313966	-0.677631	0.147482	-76.233618	-119.041503
29400		9.500827	0.066118	2.311345	0.022317	-0.014174	-0.003703	0.399760	-0.531437	-0.314134	-0.677560	0.191544	-76.243811	-119.069152
29401		9.502161	0.035396	2.325321	0.007637	-0.009516	0.004589	0.399765	-0.531451	-0.314216	-0.677507	0.206175	-76.251651	-119.076061
29402		9.501338	0.066102	2.309244	0.008612	-0.010704	0.006104	0.399781	-0.531465	-0.314304	-0.677447	0.219447	-76.259872	-119.080095
29403		9.517349	0.047186	2.308176	0.010271	-0.012254	0.003857	0.399793	-0.531476	-0.314407	-0.677382	0.238162	-76.269012	-119.088476
29404		9.547984	0.040787	2.292245	0.009643	-0.005951	0.003034	0.399808	-0.531467	-0.314498	-0.677338	0.259200	-76.274502	-119.099896
29405		9.533409	0.028209	2.306895	0.011942	-0.003213	0.006755	0.399846	-0.531450	-0.314580	-0.677291	0.272708	-76.278464	-119.102289
29406		9.520867	0.049026	2.272435	0.007768	0.000240	0.007486	0.399881	-0.531430	-0.314640	-0.677258	0.282172	-76.280418	-119.102900
29407		9.490427	0.054675	2.287589	0.006109	0.001791	0.009734	0.399925	-0.531412	-0.314687	-0.677225	0.284433	-76.281670	-119.096674
29408		9.474674	0.072413	2.287648	0.003004	0.000251	0.012025	0.399963	-0.531409	-0.314719	-0.677190	0.280516	-76.283631	-119.086321
29409		9.501893	0.062612	2.307057	0.003595	0.003694	0.008218	0.400000	-0.531386	-0.314758	-0.677169	0.285160	-76.283562	-119.083739
29410		9.504991	0.064360	2.273071	0.005987	0.002627	0.011983	0.400049	-0.531368	-0.314795	-0.677136	0.283020	-76.284161	-119.073456
29411		9.536410	0.026489	2.273342	0.012972	0.001537	0.003686	0.400085	-0.531329	-0.314878	-0.677106	0.304123	-76.285460	-119.083297
29412		9.509138	0.035117	2.254189	0.011283	0.000119	0.008227	0.400132	-0.531304	-0.314948	-0.677066	0.313869	-76.287486	-119.082125
29413		9.480682	0.042598	2.391552	-0.003682	0.005611	0.011239	0.400153	-0.531300	-0.314944	-0.677058	0.306200	-76.286651	-119.072784
29414		9.498384	0.055944	2.342844	-0.009664	0.008484	0.018759	0.400193	-0.531305	-0.314898	-0.677052	0.279113	-76.283914	-119.046052
29415		9.520266	0.040268	2.275122	-0.012330	0.008255	0.021786	0.400237	-0.531320	-0.314837	-0.677043	0.243707	-76.281232	-119.012173
29416		9.524293	0.009436	2.256699	-0.007840	0.006945	0.024042	0.400297	-0.531335	-0.314786	-0.677020	0.205306	-76.279381	-118.972719
29417		9.498966	-0.045813	2.268151	0.012620	0.001917	0.022506	0.400396	-0.531324	-0.314817	-0.676955	0.182064	-76.280382	-118.937123
29418		9.498932	0.016376	2.359999	0.001185	-0.000329	0.018820	0.400451	-0.531337	-0.314826	-0.676908	0.161144	-76.282682	-118.910340
29419		9.459026	-0.050791	2.385918	-0.002242	-0.004011	0.018127	0.400486	-0.531369	-0.314832	-0.676860	0.140916	-76.287043	-118.886646
29420		9.461273	-0.019184	2.336234	-0.004024	-0.001621	0.022625	0.400538	-0.531402	-0.314815	-0.676811	0.108062	-76.290083	-118.850653
29421		9.476047	-0.008962	2.320887	-0.004346	-0.003765	0.019641	0.400573	-0.531439	-0.314809	-0.676763	0.082670	-76.294289	-118.822711
29422		9.498259	0.039321	2.343688	-0.008019	-0.005773	0.023447	0.400611	-0.531497	-0.314785	-0.676707	0.045571	-76.299699	-118.784705
29423		9.487834	-0.003920	2.339062	-0.012101	-0.006119	0.024224	0.400633	-0.531565	-0.314744	-0.676659	0.005600	-76.305219	-118.746925
29424		9.491184	-0.004011	2.304058	-0.012137	-0.009087	0.026520	0.400665	-0.531647	-0.314704	-0.676595	-0.041155	-76.312514	-118.701411
29425		9.463192	0.033374	2.268905	-0.014527	-0.008016	0.022756	0.400685	-0.531720	-0.314669	-0.676541	-0.080142	-76.319104	-118.664309
29426		9.438116	-0.022017	2.278897	-0.005750	-0.013628	0.022028	0.400712	-0.531797	-0.314673	-0.676464	-0.112769	-76.328991	-118.629572
29427		9.461510	-0.004897	2.316128	-0.011900	-0.010757	0.022026	0.400726	-0.531877	-0.314650	-0.676403	-0.148976	-76.337298	-118.594712
29428		9.483885	-0.020652	2.245982	-0.011524	-0.023008	0.019909	0.400716	-0.531994	-0.314658	-0.676313	-0.180079	-76.352552	-118.564951
29429		9.473775	-0.063679	2.239668	-0.012656	-0.023951	0.022941	0.400706	-0.532122	-0.314654	-0.676221	-0.218248	-76.368243	-118.529208
29430		9.480891	0.002887	2.260526	-0.016213	-0.026790	0.024503	0.400692	-0.532268	-0.314641	-0.676119	-0.263088	-76.385644	-118.488080
29431		9.485571	-0.028204	2.238769	-0.018197	-0.027377	0.023770	0.400669	-0.532419	-0.314625	-0.676021	-0.307544	-76.403384	-118.448571
29432		9.455852	-0.024336	2.251085	-0.016017	-0.031427	0.022302	0.400641	-0.532577	-0.314629	-0.675912	-0.347340	-76.423434	-118.412524
29433		9.498462	-0.023877	2.252414	-0.020426	-0.026291	0.027547	0.400627	-0.532738	-0.314590	-0.675812	-0.403369	-76.440670	-118.362717
29434		9.513803	-0.014306	2.234650	-0.015017	-0.029645	0.021529	0.400602	-0.532887	-0.314596	-0.675707	-0.440959	-76.459688	-118.328354
29435		9.512284	-0.050384	2.281185	-0.015021	-0.029643	0.021533	0.400576	-0.533035	-0.314602	-0.675602	-0.478022	-76.478657	-118.294406
29436		9.500365	-0.031276	2.244282	-0.013004	-0.026084	0.019976	0.400557	-0.533165	-0.314611	-0.675507	-0.510876	-76.495633	-118.263734
29437		9.516569	-0.052318	2.241764	-0.015108	-0.025835	0.021496	0.400533	-0.533303	-0.314606	-0.675414	-0.548512	-76.512505	-118.230022
29438		9.521122	-0.083101	2.220069	-0.015111	-0.025833	0.021500	0.400514	-0.533439	-0.314603	-0.675320	-0.586378	-76.529319	-118.195441
29439		9.517659	-0.057090	2.237017	-0.018711	-0.021894	0.020728	0.400484	-0.533570	-0.314580	-0.675245	-0.624299	-76.543951	-118.163631
29440		9.502509	-0.040645	2.235035	-0.012648	-0.020968	0.020678	0.400475	-0.533683	-0.314578	-0.675161	-0.658824	-76.557973	-118.131039
29441		9.530290	-0.052207	2.251920	-0.020741	-0.025447	0.022297	0.400441	-0.533832	-0.314551	-0.675076	-0.701975	-76.574610	-118.094826
29442		9.519065	-0.064220	2.230834	-0.016773	-0.014530	0.019132	0.400427	-0.533930	-0.314526	-0.675019	-0.735107	-76.584944	-118.066100
29443		9.534124	-0.054217	2.214153	-0.018799	-0.018084	0.020697	0.400410	-0.534045	-0.314500	-0.674950	-0.773694	-76.597314	-118.032446
29444		9.515812	-0.040299	2.247081	-0.018719	-0.012143	0.016109	0.400384	-0.534133	-0.314472	-0.674909	-0.800691	-76.606296	-118.011176
29445		9.500488	-0.023454	2.245982	-0.017185	-0.012863	0.016107	0.400366	-0.534218	-0.314454	-0.674861	-0.826397	-76.615535	-117.989531
29446		9.531043	-0.031840	2.229683	-0.015726	-0.009779	0.016063	0.400351	-0.534292	-0.314432	-0.674821	-0.851547	-76.623159	-117.968398
29447		9.504826	-0.055588	2.224838	-0.014265	-0.006695	0.016019	0.400348	-0.534351	-0.314411	-0.674786	-0.875107	-76.628890	-117.947524
29448		9.516646	-0.047860	2.243399	-0.015802	-0.005974	0.016024	0.400339	-0.534412	-0.314381	-0.674757	-0.900111	-76.634330	-117.926586
29449		9.516754	-0.049779	2.242897	-0.022396	-0.004393	0.015307	0.400309	-0.534486	-0.314322	-0.674744	-0.928477	-76.639124	-117.906983
29450		9.544113	-0.060795	2.261562	-0.017747	-0.003586	0.013000	0.400289	-0.534538	-0.314289	-0.674730	-0.947242	-76.643220	-117.893605
29451		9.513844	-0.056035	2.276635	-0.019922	0.000468	0.014483	0.400271	-0.534585	-0.314235	-0.674729	-0.970156	-76.645011	-117.877617
29452		9.526386	-0.079302	2.310815	-0.017822	0.000219	0.012962	0.400256	-0.534625	-0.314194	-0.674725	-0.988732	-76.646925	-117.864477
29453		9.517644	-0.087784	2.257572	-0.019432	0.004746	0.012929	0.400249	-0.534651	-0.314141	-0.674733	-1.008193	-76.646240	-117.850600
29454		9.516643	-0.058412	2.243162	-0.018535	0.007356	0.014403	0.400248	-0.534671	-0.314080	-0.674746	-1.030354	-76.644050	-117.834196
29455		9.532055	-0.078972	2.243654	-0.018986	0.006052	0.013668	0.400243	-0.534692	-0.314023	-0.674758	-1.050228	-76.642550	-117.820030
29456		9.524990	-0.055147	2.297892	-0.022059	0.007497	0.013680	0.400231	-0.534718	-0.313951	-0.674779	-1.072645	-76.640283	-117.805437
29457		9.516969	-0.094688	2.260140	-0.015422	0.008885	0.012104	0.400232	-0.534723	-0.313903	-0.674797	-1.087053	-76.637293	-117.795382
29458		9.516732	-0.096062	2.261079	-0.013842	0.011135	0.009807	0.400234	-0.534713	-0.313861	-0.674823	-1.095245	-76.632983	-117.790571
29459		9.486220	-0.090706	2.277160	-0.011669	0.007081	0.008322	0.400227	-0.534711	-0.313839	-0.674839	-1.097961	-76.631066	-117.790509
29460		9.485198	-0.060620	2.263006	-0.015712	0.009723	0.006821	0.400212	-0.534705	-0.313802	-0.674869	-1.100090	-76.627598	-117.793032
29461		9.474127	-0.102211	2.259551	-0.011104	0.007555	0.006806	0.400209	-0.534694	-0.313790	-0.674886	-1.098449	-76.625259	-117.795957
29462		9.488743	-0.090693	2.244959	-0.010917	0.002919	0.004587	0.400189	-0.534698	-0.313789	-0.674895	-1.092760	-76.625713	-117.803691
29463		9.500336	-0.082090	2.264542	-0.012688	0.005305	0.009104	0.400182	-0.534705	-0.313766	-0.674905	-1.098495	-76.624818	-117.800721
29464		9.484659	-0.064414	2.265156	-0.014674	0.004724	0.008372	0.400168	-0.534716	-0.313738	-0.674917	-1.103997	-76.624196	-117.799166
29465		9.514886	-0.072145	2.250204	-0.016707	0.001170	0.009932	0.400149	-0.534748	-0.313706	-0.674918	-1.116156	-76.625763	-117.792001
29466		9.514773	-0.073358	2.250643	-0.007702	0.008244	0.009792	0.400163	-0.534736	-0.313691	-0.674926	-1.120917	-76.623109	-117.787100
29467		9.511582	-0.077150	2.285449	-0.009500	0.003028	0.006839	0.400150	-0.534741	-0.313687	-0.674932	-1.119089	-76.623506	-117.790576
29468		9.499750	-0.087565	2.266795	-0.010658	0.008860	0.007549	0.400149	-0.534729	-0.313667	-0.674950	-1.120110	-76.620523	-117.791261
29469		9.502621	-0.085676	2.233284	-0.007586	0.007413	0.007538	0.400157	-0.534717	-0.313660	-0.674959	-1.120578	-76.618501	-117.790576
29470		9.526613	-0.098717	2.287346	-0.005600	0.007994	0.008271	0.400171	-0.534699	-0.313657	-0.674966	-1.120481	-76.616008	-117.789432
29471		9.486731	-0.068708	2.234836	-0.006617	0.006217	0.009050	0.400186	-0.534687	-0.313656	-0.674968	-1.121763	-76.614346	-117.786753
29472		9.499061	-0.091269	2.269534	-0.008036	0.006110	0.006800	0.400186	-0.534677	-0.313653	-0.674977	-1.119608	-76.612947	-117.789158
29473		9.498903	-0.091856	2.270170	-0.002812	0.007386	0.002974	0.400188	-0.534650	-0.313673	-0.674987	-1.106333	-76.611039	-117.800144
29474		9.529050	-0.098781	2.255605	-0.001843	0.006189	0.004486	0.400197	-0.534625	-0.313696	-0.674991	-1.095060	-76.609621	-117.808274
29475		9.494763	-0.064380	2.290707	0.001230	0.004741	0.004474	0.400212	-0.534597	-0.313734	-0.674987	-1.081817	-76.609037	-117.816496
29476		9.502293	-0.121282	2.252697	0.002744	0.010796	0.002145	0.400232	-0.534544	-0.313770	-0.675000	-1.062082	-76.605004	-117.830624
29477		9.509915	-0.083710	2.292147	0.004232	0.007098	0.004429	0.400259	-0.534506	-0.313809	-0.674996	-1.048950	-76.603235	-117.837372
29478		9.524459	-0.071938	2.278014	-0.001583	0.012129	0.007449	0.400288	-0.534465	-0.313814	-0.675010	-1.044405	-76.598382	-117.838434
29479		9.506315	-0.087984	2.328475	-0.004256	0.011907	0.010490	0.400322	-0.534432	-0.313804	-0.675020	-1.048460	-76.593559	-117.831702
29480		9.518478	-0.077744	2.192228	0.003944	0.005785	0.011235	0.400369	-0.534407	-0.313830	-0.675000	-1.050126	-76.592300	-117.823123
29481		9.472548	-0.053077	2.207918	0.019356	0.001516	0.008890	0.400437	-0.534364	-0.313920	-0.674952	-1.037240	-76.593561	-117.821095
29482		9.439096	-0.049429	2.257573	0.014136	0.002394	0.000624	0.400469	-0.534313	-0.314015	-0.674928	-1.007711	-76.594354	-117.838583
29483		9.503624	-0.123499	2.379024	-0.002884	-0.003187	-0.002212	0.400441	-0.534308	-0.314076	-0.674921	-0.980005	-76.598318	-117.863401
29484		9.561853	-0.043899	2.304422	-0.027610	0.013861	0.009898	0.400411	-0.534316	-0.313983	-0.674975	-0.996210	-76.592448	-117.858462
29485		9.471311	-0.024463	2.195059	-0.021496	0.015591	0.019647	0.400432	-0.534324	-0.313879	-0.675005	-1.032743	-76.585610	-117.829314
29486		9.494378	-0.007723	2.234744	-0.019773	0.010232	0.017419	0.400443	-0.534342	-0.313800	-0.675022	-1.062647	-76.581739	-117.805675
29487		9.442749	-0.115587	2.256773	-0.020604	0.003821	0.015973	0.400439	-0.534378	-0.313736	-0.675025	-1.089353	-76.581511	-117.785342
29488		9.454302	-0.108134	2.276433	-0.014649	0.005556	0.018177	0.400459	-0.534402	-0.313681	-0.675020	-1.118338	-76.580305	-117.759629
29489		9.468968	-0.097851	2.261848	-0.011577	0.004107	0.018167	0.400486	-0.534425	-0.313638	-0.675005	-1.146927	-76.579965	-117.732454
29490		9.511732	-0.127821	2.280461	-0.001017	-0.010714	0.015190	0.400507	-0.534472	-0.313670	-0.674941	-1.161717	-76.588107	-117.713305
29491		9.481685	-0.122220	2.294510	0.009061	-0.013278	0.006832	0.400519	-0.534493	-0.313763	-0.674874	-1.149114	-76.597749	-117.716635
29492		9.492921	-0.081952	2.297768	0.005591	-0.010155	0.003815	0.400519	-0.534507	-0.313846	-0.674824	-1.132752	-76.605702	-117.725619
29493		9.496271	-0.079318	2.262477	0.005141	-0.011458	0.003075	0.400516	-0.534524	-0.313935	-0.674771	-1.114506	-76.614460	-117.736373
29494		9.526133	-0.054958	2.231234	0.004121	-0.013234	0.003853	0.400508	-0.534551	-0.314019	-0.674715	-1.099190	-76.624176	-117.745147
29495		9.480623	-0.029802	2.245319	0.011165	-0.013529	0.005310	0.400525	-0.534565	-0.314126	-0.674644	-1.082624	-76.633924	-117.750619
29496		9.523612	-0.058183	2.263060	0.012752	-0.011280	0.003014	0.400541	-0.534567	-0.314237	-0.674582	-1.060213	-76.642528	-117.761602
29497		9.496654	-0.048972	2.242941	0.012063	-0.010922	0.006791	0.400568	-0.534574	-0.314337	-0.674513	-1.046855	-76.650860	-117.763524
29498		9.538890	-0.046465	2.245933	0.008541	-0.010774	0.006064	0.400583	-0.534588	-0.314425	-0.674453	-1.034166	-76.659141	-117.766994
29499		9.508809	-0.040333	2.260242	0.009441	-0.008167	0.007544	0.400609	-0.534593	-0.314507	-0.674395	-1.024129	-76.665940	-117.767235
29500		9.512747	-0.069328	2.240241	0.001193	-0.005011	0.009092	0.400624	-0.534607	-0.314551	-0.674355	-1.022708	-76.670888	-117.763452
29501		9.524548	-0.060734	2.259047	0.001644	-0.003708	0.009832	0.400649	-0.534613	-0.314595	-0.674313	-1.022714	-76.675032	-117.757117
29502		9.527684	-0.058772	2.224506	0.002663	-0.001932	0.009053	0.400673	-0.534613	-0.314638	-0.674280	-1.020225	-76.678216	-117.753565
29503		9.500539	-0.050206	2.205149	-0.000343	-0.004285	0.009099	0.400685	-0.534627	-0.314676	-0.674244	-1.019195	-76.682733	-117.750209
29504		9.527784	-0.060598	2.224029	-0.004048	0.000499	0.010597	0.400699	-0.534635	-0.314687	-0.674224	-1.024184	-76.684509	-117.742925
29505		9.497482	-0.055100	2.239288	-0.004049	0.000499	0.010597	0.400712	-0.534645	-0.314695	-0.674205	-1.029888	-76.686435	-117.735352
29506		9.485784	-0.065406	2.219973	-0.004263	-0.002466	0.005341	0.400703	-0.534655	-0.314725	-0.674188	-1.022407	-76.689964	-117.741008
29507		9.524736	-0.066279	2.258098	-0.003083	-0.000699	0.012110	0.400722	-0.534672	-0.314734	-0.674159	-1.032518	-76.692741	-117.728502
29508		9.485767	-0.067379	2.219983	-0.005531	0.004200	0.008312	0.400730	-0.534667	-0.314739	-0.674156	-1.032668	-76.692421	-117.727063
29509		9.507330	-0.081574	2.151585	-0.006551	0.002424	0.009092	0.400736	-0.534670	-0.314744	-0.674147	-1.034472	-76.693117	-117.724235
29510		9.523899	-0.038291	2.243755	-0.015636	-0.000827	0.009196	0.400713	-0.534703	-0.314722	-0.674145	-1.042774	-76.695667	-117.720369
29511		9.517618	-0.045547	2.312777	-0.026235	0.011029	0.014466	0.400702	-0.534724	-0.314629	-0.674178	-1.069903	-76.691281	-117.702828
29512		9.508095	-0.022874	2.245242	-0.020547	0.006820	0.013702	0.400693	-0.534748	-0.314563	-0.674195	-1.091588	-76.689401	-117.688102
29513		9.490629	-0.037734	2.139095	-0.007489	0.011222	0.015067	0.400731	-0.534732	-0.314531	-0.674200	-1.108155	-76.684908	-117.670685
29514		9.470196	-0.087966	2.238012	-0.000294	-0.001314	0.006809	0.400740	-0.534733	-0.314568	-0.674177	-1.101920	-76.687763	-117.672724
29515		9.509187	-0.088708	2.275941	0.000735	-0.006318	0.008353	0.400749	-0.534751	-0.314615	-0.674135	-1.099226	-76.693522	-117.670467
29516		9.433858	-0.088718	2.321195	-0.007125	0.001953	0.010614	0.400758	-0.534760	-0.314613	-0.674124	-1.105968	-76.694463	-117.663194
29517		9.493739	-0.071906	2.275943	-0.017059	-0.000925	0.006946	0.400724	-0.534793	-0.314593	-0.674128	-1.110110	-76.697140	-117.664415
29518		9.535784	-0.070189	2.279749	-0.020068	-0.003275	0.006992	0.400678	-0.534840	-0.314567	-0.674130	-1.115740	-76.701115	-117.665905
29519		9.532103	-0.043114	2.298873	-0.016665	-0.002597	0.009979	0.400644	-0.534887	-0.314539	-0.674126	-1.126463	-76.704835	-117.661252
29520		9.522830	-0.019726	2.230429	-0.011100	0.000801	0.009149	0.400635	-0.534905	-0.314529	-0.674121	-1.131996	-76.706452	-117.657563
29521		9.508023	-0.033068	2.245424	-0.019049	-0.001498	0.006216	0.400592	-0.534944	-0.314505	-0.674127	-1.135642	-76.709496	-117.660546
29522		9.508056	-0.034082	2.245268	-0.015527	-0.001650	0.006943	0.400560	-0.534976	-0.314491	-0.674127	-1.138480	-76.712542	-117.662231
29523		9.511761	-0.063513	2.225932	-0.020767	0.003865	0.008455	0.400530	-0.535001	-0.314446	-0.674146	-1.147440	-76.712296	-117.660425
29524		9.523468	-0.055333	2.245230	-0.025133	-0.002390	0.006278	0.400469	-0.535054	-0.314403	-0.674160	-1.154207	-76.715774	-117.663728
29525		9.535184	-0.047240	2.264495	-0.030375	0.003126	0.007793	0.400408	-0.535102	-0.314328	-0.674194	-1.167617	-76.716151	-117.663287
29526		9.531369	-0.020333	2.284294	-0.031342	0.004328	0.006285	0.400341	-0.535145	-0.314251	-0.674236	-1.177630	-76.715780	-117.666909
29527		9.564641	-0.025417	2.235187	-0.031916	0.003856	0.007806	0.400270	-0.535200	-0.314162	-0.674276	-1.193489	-76.716014	-117.666168
29528		9.534222	-0.020119	2.251009	-0.034362	0.008764	0.004019	0.400195	-0.535230	-0.314071	-0.674339	-1.199513	-76.713129	-117.675669
29529		9.522331	-0.030292	2.232438	-0.023434	0.005817	-0.000586	0.400131	-0.535239	-0.314039	-0.674385	-1.188027	-76.711907	-117.696241
29530		9.533940	-0.021466	2.252191	-0.022470	0.004616	0.000925	0.400070	-0.535255	-0.314005	-0.674424	-1.179943	-76.711435	-117.713235
29531		9.507305	-0.043590	2.248282	-0.020816	0.003061	-0.001344	0.400002	-0.535268	-0.313987	-0.674462	-1.164481	-76.711850	-117.736805
29532		9.507202	-0.043826	2.248712	-0.024284	0.006195	-0.004353	0.399921	-0.535273	-0.313959	-0.674519	-1.144560	-76.710532	-117.767031
29533		9.510218	-0.040970	2.214817	-0.022687	0.001662	-0.004337	0.399837	-0.535290	-0.313946	-0.674561	-1.123086	-76.711834	-117.797767
29534		9.510241	-0.041205	2.214712	-0.025758	-0.003664	-0.002008	0.399744	-0.535336	-0.313926	-0.674590	-1.110163	-76.716133	-117.821670
29535		9.468339	-0.044217	2.210237	-0.024103	-0.005218	-0.004277	0.399647	-0.535381	-0.313919	-0.674614	-1.092372	-76.721459	-117.849701
29536		9.456178	-0.022549	2.175382	-0.026090	-0.012573	-0.002701	0.399537	-0.535456	-0.313917	-0.674620	-1.078332	-76.730867	-117.874945
29537		9.441665	-0.035300	2.189026	-0.026150	-0.015552	-0.000415	0.399435	-0.535540	-0.313921	-0.674613	-1.068537	-76.741742	-117.894799
29538		9.457528	-0.054413	2.187003	-0.020218	-0.021416	-0.005720	0.399317	-0.535629	-0.313965	-0.674592	-1.044121	-76.756244	-117.927245
29539		9.472825	-0.042033	2.169923	-0.015727	-0.022775	-0.003488	0.399213	-0.535718	-0.314017	-0.674558	-1.023203	-76.771528	-117.954077
29540		9.485107	-0.032803	2.186823	-0.012712	-0.027211	-0.001224	0.399121	-0.535818	-0.314086	-0.674501	-1.005578	-76.789299	-117.975124
29541		9.489433	-0.060872	2.164615	-0.008381	-0.028540	-0.006543	0.399020	-0.535907	-0.314185	-0.674444	-0.972883	-76.807927	-118.009260
29542		9.528345	-0.029650	2.185467	-0.009071	-0.028190	-0.002761	0.398931	-0.536000	-0.314272	-0.674382	-0.949325	-76.826269	-118.034256
29543		9.472148	-0.044809	2.193842	-0.012718	-0.027208	-0.001216	0.398841	-0.536098	-0.314344	-0.674324	-0.930536	-76.843973	-118.055995
29544		9.499312	-0.023369	2.195453	-0.017271	-0.028827	-0.001157	0.398734	-0.536213	-0.314400	-0.674270	-0.915513	-76.862661	-118.077047
29545		9.557344	-0.039919	2.196655	-0.015007	-0.022326	0.002558	0.398653	-0.536309	-0.314439	-0.674223	-0.907986	-76.877725	-118.089566
29546		9.584397	-0.018993	2.198727	-0.012621	-0.023434	0.006317	0.398593	-0.536408	-0.314481	-0.674161	-0.908393	-76.893255	-118.092036
29547		9.542849	-0.022379	2.192761	-0.009435	-0.018929	0.001726	0.398529	-0.536478	-0.314536	-0.674117	-0.894411	-76.906231	-118.107645
29548		9.572797	0.002089	2.161051	-0.004314	-0.016834	0.000147	0.398481	-0.536528	-0.314609	-0.674071	-0.874572	-76.918034	-118.126016
29549		9.517044	-0.044488	2.185230	-0.004431	-0.016010	0.002410	0.398440	-0.536579	-0.314674	-0.674024	-0.860025	-76.929365	-118.138977
29550		9.520368	-0.041877	2.149511	-0.002555	-0.014616	0.005402	0.398418	-0.536627	-0.314734	-0.673972	-0.852010	-76.939850	-118.144173
29551		9.529461	-0.036163	2.201718	-0.001532	-0.012840	0.004625	0.398398	-0.536662	-0.314798	-0.673925	-0.839716	-76.949119	-118.152840
29552		9.517908	-0.046027	2.181434	-0.003698	-0.008784	0.006136	0.398384	-0.536693	-0.314841	-0.673889	-0.833938	-76.956256	-118.156411
29553		9.518151	-0.046753	2.180358	-0.002672	-0.013792	0.007665	0.398369	-0.536741	-0.314893	-0.673835	-0.830830	-76.966213	-118.156636
29554		9.536140	-0.032061	2.130003	-0.000170	-0.008941	0.006853	0.398366	-0.536767	-0.314946	-0.673791	-0.824800	-76.973434	-118.158390
29555		9.548779	-0.054740	2.163188	0.000739	-0.006342	0.008337	0.398376	-0.536785	-0.314993	-0.673749	-0.821790	-76.979161	-118.156452
29556		9.534161	-0.067740	2.177516	0.005919	-0.008052	0.006777	0.398391	-0.536796	-0.315065	-0.673698	-0.812045	-76.985874	-118.158439
29557		9.534312	-0.068388	2.176832	0.000739	-0.006342	0.008338	0.398396	-0.536817	-0.315108	-0.673658	-0.810028	-76.991763	-118.156205
29558		9.560985	-0.047689	2.180596	-0.000457	-0.003490	0.011356	0.398417	-0.536832	-0.315137	-0.673620	-0.815129	-76.995825	-118.146705
29559		9.530163	-0.010895	2.180985	0.000112	-0.003014	0.009836	0.398432	-0.536846	-0.315167	-0.673585	-0.817396	-76.999847	-118.140409
29560		9.504286	-0.064957	2.191273	0.000338	-0.000068	0.015103	0.398473	-0.536855	-0.315182	-0.673548	-0.831227	-77.001917	-118.121482
29561		9.533853	-0.041469	2.161122	0.002103	-0.002444	0.010565	0.398499	-0.536862	-0.315219	-0.673509	-0.834055	-77.005577	-118.112942
29562		9.507303	-0.064083	2.156722	0.002558	-0.001144	0.011308	0.398531	-0.536864	-0.315253	-0.673473	-0.837241	-77.008295	-118.103635
29563		9.503705	-0.037065	2.176166	0.001418	-0.002095	0.014349	0.398572	-0.536876	-0.315278	-0.673427	-0.850064	-77.011688	-118.084753
29564		9.491963	-0.047614	2.156591	0.004035	-0.004853	0.013580	0.398610	-0.536891	-0.315319	-0.673374	-0.858196	-77.016510	-118.069501
29565		9.507486	-0.067833	2.155800	-0.001600	-0.004439	0.014400	0.398639	-0.536915	-0.315339	-0.673327	-0.872042	-77.021091	-118.051310
29566		9.522353	-0.056902	2.140351	0.001927	-0.004599	0.015115	0.398677	-0.536936	-0.315368	-0.673275	-0.885208	-77.025753	-118.032132
29567		9.534265	-0.048928	2.159146	0.004033	-0.004853	0.013582	0.398716	-0.536948	-0.315411	-0.673222	-0.892780	-77.030481	-118.017174
29568		9.546097	-0.041047	2.178307	0.003239	0.003103	0.017319	0.398777	-0.536943	-0.315423	-0.673184	-0.910395	-77.030709	-117.992661
29569		9.534282	-0.051817	2.159001	-0.001603	-0.004437	0.014402	0.398803	-0.536968	-0.315443	-0.673140	-0.923109	-77.035306	-117.975832
29570		9.534266	-0.053538	2.159030	-0.004046	0.005072	0.020417	0.398858	-0.536976	-0.315419	-0.673112	-0.952534	-77.034373	-117.943484
29571		9.543007	-0.049261	2.213014	-0.005469	0.004979	0.018168	0.398903	-0.536982	-0.315397	-0.673091	-0.976859	-77.033474	-117.916892
29572		9.573088	-0.057735	2.198116	-0.005470	0.004979	0.018169	0.398946	-0.536990	-0.315374	-0.673070	-1.001503	-77.032610	-117.890286
29573		9.561088	-0.068795	2.179583	-0.006489	0.009989	0.016640	0.398982	-0.536985	-0.315335	-0.673070	-1.023622	-77.029066	-117.868138
29574		9.541858	-0.023436	2.200581	-0.007570	0.012019	0.017397	0.399028	-0.536972	-0.315293	-0.673073	-1.047217	-77.024173	-117.843843
29575		9.560512	-0.072420	2.181990	-0.009160	0.016554	0.017390	0.399081	-0.536944	-0.315241	-0.673089	-1.070398	-77.016628	-117.820090
29576		9.553589	-0.049036	2.237391	-0.009047	0.015730	0.015128	0.399121	-0.536917	-0.315193	-0.673109	-1.088986	-77.009628	-117.801800
29577		9.526583	-0.072447	2.234688	-0.011271	0.016811	0.018927	0.399171	-0.536897	-0.315126	-0.673126	-1.118197	-77.002015	-117.773692
29578		9.532168	-0.068153	2.167865	-0.011094	0.018968	0.014380	0.399209	-0.536863	-0.315066	-0.673160	-1.135898	-76.993166	-117.757516
29579		9.516911	-0.082015	2.184724	-0.015587	0.020339	0.012158	0.399225	-0.536832	-0.314991	-0.673210	-1.150826	-76.983605	-117.747513
29580		9.516481	-0.083635	2.186533	-0.013662	0.017927	0.015174	0.399257	-0.536808	-0.314922	-0.673243	-1.171973	-76.975341	-117.729308
29581		9.527896	-0.076131	2.207463	-0.012127	0.017196	0.015163	0.399294	-0.536784	-0.314859	-0.673269	-1.193941	-76.967611	-117.709270
29582		9.515730	-0.086996	2.189667	-0.015033	0.014033	0.012946	0.399308	-0.536772	-0.314800	-0.673298	-1.210516	-76.961602	-117.696563
29583		9.488222	-0.079005	2.172078	-0.015724	0.014382	0.016733	0.399335	-0.536763	-0.314731	-0.673321	-1.235680	-76.955221	-117.674925
29584		9.530470	-0.109601	2.191921	-0.018174	0.012518	0.015260	0.399347	-0.536766	-0.314658	-0.673346	-1.259823	-76.950048	-117.656296
29585		9.526076	-0.051859	2.198182	-0.015037	0.014035	0.012951	0.399364	-0.536752	-0.314601	-0.673374	-1.276097	-76.944053	-117.643378
29586		9.483770	-0.055815	2.195408	-0.013840	0.011182	0.009929	0.399366	-0.536743	-0.314559	-0.673399	-1.284636	-76.939712	-117.638218
29587		9.510155	-0.035684	2.200874	-0.022552	0.013071	0.010774	0.399352	-0.536746	-0.314483	-0.673441	-1.300531	-76.934359	-117.630561
29588		9.506784	-0.040279	2.236463	-0.016004	0.015244	0.011449	0.399361	-0.536729	-0.314421	-0.673477	-1.313819	-76.927670	-117.621797
29589		9.531565	-0.082267	2.149049	-0.003478	0.007738	0.006808	0.399376	-0.536705	-0.314431	-0.673483	-1.308772	-76.925323	-117.624312
29590		9.500756	-0.044861	2.150120	0.009893	-0.000155	0.005940	0.399412	-0.536680	-0.314503	-0.673449	-1.294497	-76.927527	-117.628613
29591		9.491534	-0.054108	2.253044	0.004744	0.003765	-0.004606	0.399400	-0.536640	-0.314573	-0.673455	-1.258449	-76.927850	-117.659142
29592		9.560675	-0.061273	2.276148	-0.022318	0.000054	-0.001267	0.399325	-0.536667	-0.314555	-0.673486	-1.244829	-76.930024	-117.681716
29593		9.569747	-0.053066	2.173873	-0.033785	0.010120	0.012427	0.399283	-0.536702	-0.314445	-0.673534	-1.269968	-76.926195	-117.670657
29594		9.529501	0.008121	2.107777	-0.028943	0.017651	0.015370	0.399274	-0.536709	-0.314325	-0.673590	-1.300210	-76.918078	-117.652100
29595		9.511254	-0.009446	2.158336	-0.024860	0.011173	0.016866	0.399271	-0.536733	-0.314228	-0.673618	-1.332284	-76.913686	-117.629227
29596		9.473019	-0.073374	2.150301	-0.029235	0.011731	0.012378	0.399242	-0.536756	-0.314127	-0.673664	-1.355613	-76.908996	-117.617938
29597		9.454849	-0.090641	2.200342	-0.024121	0.007024	0.013097	0.399220	-0.536787	-0.314049	-0.673689	-1.378369	-76.907052	-117.604498
29598		9.473156	-0.108131	2.166191	-0.012909	0.003187	0.013744	0.399225	-0.536808	-0.314016	-0.673684	-1.396199	-76.907235	-117.589250
29599		9.500760	-0.150503	2.199626	-0.003907	-0.004155	0.008376	0.399224	-0.536827	-0.314043	-0.673657	-1.395424	-76.911618	-117.587845
29600		9.530626	-0.126421	2.169280	0.001973	-0.006225	0.003025	0.399219	-0.536834	-0.314108	-0.673624	-1.378883	-76.917341	-117.599132
29601		9.524113	-0.101565	2.222711	-0.001943	-0.004368	-0.000719	0.399199	-0.536837	-0.314166	-0.673607	-1.357338	-76.922192	-117.617424
29602		9.538652	-0.058386	2.192688	-0.008924	-0.007056	0.007687	0.399178	-0.536876	-0.314184	-0.673580	-1.358567	-76.928325	-117.616876
29603		9.526960	-0.068016	2.172887	-0.001487	-0.003071	0.000027	0.399161	-0.536870	-0.314243	-0.673567	-1.334989	-76.932202	-117.636734
29604		9.537874	0.003567	2.162938	0.004372	-0.000560	0.004490	0.399176	-0.536855	-0.314301	-0.673543	-1.320324	-76.934658	-117.644682
29605		9.562413	-0.040999	2.230617	0.012006	-0.000425	0.004404	0.399216	-0.536822	-0.314388	-0.673505	-1.301104	-76.936970	-117.652100
29606		9.550145	-0.018663	2.196772	0.015843	0.000746	-0.001693	0.399243	-0.536770	-0.314498	-0.673479	-1.264518	-76.938755	-117.675805
29607		9.553620	-0.046310	2.177369	0.017786	0.005115	-0.000974	0.399281	-0.536704	-0.314601	-0.673461	-1.229143	-76.938223	-117.697774
29608		9.538604	-0.058195	2.192903	0.013175	0.007317	-0.000930	0.399313	-0.536637	-0.314687	-0.673455	-1.195618	-76.936229	-117.719905
29609		9.526669	-0.067105	2.174190	0.011569	0.005068	0.001366	0.399346	-0.536580	-0.314771	-0.673442	-1.166564	-76.935357	-117.737918
29610		9.538335	-0.058044	2.194076	0.007801	0.006882	0.005182	0.399384	-0.536534	-0.314823	-0.673432	-1.151238	-76.933536	-117.744528
29611		9.526355	-0.067591	2.175550	0.008713	0.009477	0.006675	0.399435	-0.536481	-0.314869	-0.673422	-1.140112	-76.930358	-117.746231
29612		9.514334	-0.077232	2.157209	0.009168	0.010775	0.007422	0.399491	-0.536423	-0.314913	-0.673415	-1.129346	-76.926281	-117.747356
29613		9.513644	-0.046544	2.143683	0.003527	0.011204	0.008238	0.399535	-0.536377	-0.314933	-0.673415	-1.124642	-76.922052	-117.745592
29614		9.513848	-0.078534	2.159301	0.001535	0.010641	0.007506	0.399570	-0.536335	-0.314951	-0.673420	-1.118467	-76.918051	-117.746493
29615		9.510033	-0.051140	2.180145	-0.002619	0.014141	0.008294	0.399601	-0.536292	-0.314944	-0.673439	-1.116818	-76.912100	-117.745512
29616		9.521505	-0.042746	2.200828	-0.002044	0.014617	0.006774	0.399630	-0.536242	-0.314944	-0.673462	-1.110703	-76.905830	-117.748457
29617		9.521212	-0.043546	2.202076	-0.002116	0.011634	0.009055	0.399661	-0.536207	-0.314942	-0.673472	-1.110641	-76.901270	-117.745449
29618		9.555101	-0.110542	2.183058	0.000403	0.016478	0.008255	0.399705	-0.536148	-0.314942	-0.673493	-1.106687	-76.893916	-117.744737
29619		9.520616	-0.045166	2.204621	0.000500	0.008868	0.008283	0.399741	-0.536113	-0.314961	-0.673491	-1.102860	-76.890794	-117.743198
29620		9.528890	-0.040135	2.259801	-0.014506	0.025122	0.009137	0.399761	-0.536056	-0.314891	-0.673557	-1.109206	-76.878479	-117.740680
29621		9.474166	-0.021875	2.223985	-0.010669	0.020283	0.015167	0.399804	-0.536018	-0.314828	-0.673591	-1.128311	-76.868932	-117.722885
29622		9.471774	-0.054282	2.118417	-0.002340	0.020069	0.011302	0.399856	-0.535958	-0.314804	-0.673619	-1.133221	-76.859487	-117.714683
29623		9.472302	-0.117900	2.148708	0.007024	0.004243	0.011262	0.399909	-0.535929	-0.314846	-0.673591	-1.131832	-76.858962	-117.707058
29624		9.469499	-0.153301	2.197659	0.009568	-0.001508	0.012769	0.399964	-0.535920	-0.314901	-0.673540	-1.134561	-76.861860	-117.694089
29625		9.442404	-0.144477	2.178607	0.002967	0.000135	0.012074	0.400002	-0.535915	-0.314935	-0.673505	-1.138003	-76.863735	-117.683876
29626		9.484020	-0.112096	2.168115	-0.007357	-0.000210	0.015206	0.400023	-0.535939	-0.314924	-0.673480	-1.156353	-76.865862	-117.664825
29627		9.519441	-0.086336	2.225669	-0.009831	-0.008858	0.016017	0.400022	-0.535998	-0.314919	-0.673435	-1.177474	-76.872912	-117.644610
29628		9.558450	-0.088918	2.263333	-0.011993	-0.004792	0.017540	0.400031	-0.536050	-0.314896	-0.673399	-1.204471	-76.877632	-117.619409
29629		9.557757	-0.028176	2.233934	-0.007936	-0.000684	0.016729	0.400053	-0.536083	-0.314876	-0.673369	-1.228710	-76.880218	-117.595110
29630		9.576580	-0.076947	2.213850	-0.001717	-0.000643	0.014396	0.400084	-0.536096	-0.314887	-0.673335	-1.241901	-76.882595	-117.578040
29631		9.545913	-0.040297	2.214803	-0.000275	0.006232	0.014359	0.400126	-0.536085	-0.314887	-0.673319	-1.253289	-76.881069	-117.562639
29632		9.534312	-0.082158	2.210730	-0.004883	0.008440	0.014400	0.400164	-0.536074	-0.314869	-0.673314	-1.267814	-76.878242	-117.546062
29633		9.564251	-0.090330	2.196708	-0.005935	0.017263	0.012870	0.400206	-0.536036	-0.314831	-0.673336	-1.280445	-76.870645	-117.532449
29634		9.545399	-0.076013	2.232961	-0.013692	0.017961	0.015217	0.400238	-0.536012	-0.314762	-0.673369	-1.301474	-76.862352	-117.514375
29635		9.563103	-0.062438	2.185555	-0.019337	0.018399	0.016032	0.400257	-0.535999	-0.314670	-0.673411	-1.327898	-76.853780	-117.494280
29636		9.544178	-0.048634	2.222099	-0.019508	0.023028	0.018293	0.400292	-0.535974	-0.314563	-0.673460	-1.359449	-76.842539	-117.468820
29637		9.531889	-0.059633	2.204908	-0.016694	0.022421	0.012971	0.400316	-0.535936	-0.314483	-0.673514	-1.375651	-76.831702	-117.457163
29638		9.489035	-0.032127	2.188461	-0.011554	0.024493	0.011404	0.400350	-0.535879	-0.314419	-0.673568	-1.385625	-76.819714	-117.449180
29639		9.488818	-0.064562	2.205236	-0.011308	0.022850	0.006866	0.400367	-0.535823	-0.314367	-0.673627	-1.385862	-76.808835	-117.451479
29640		9.503283	-0.053103	2.192545	-0.007202	0.023149	0.006070	0.400394	-0.535754	-0.314335	-0.673682	-1.380379	-76.797690	-117.456812
29641		9.487833	-0.066028	2.209426	-0.012098	0.019435	0.003100	0.400389	-0.535701	-0.314301	-0.673742	-1.369579	-76.788638	-117.470628
29642		9.487434	-0.066433	2.211127	-0.010893	0.016580	0.000068	0.400375	-0.535652	-0.314285	-0.673797	-1.351975	-76.781337	-117.490584
29643		9.517354	-0.073473	2.197384	-0.010393	0.014071	0.000826	0.400364	-0.535612	-0.314273	-0.673840	-1.337451	-76.775566	-117.506846
29644		9.487045	-0.098573	2.228510	-0.017700	0.016069	0.003919	0.400344	-0.535584	-0.314225	-0.673897	-1.333196	-76.768504	-117.517096
29645		9.513185	-0.046553	2.219853	-0.019066	0.012179	0.001670	0.400303	-0.535569	-0.314186	-0.673952	-1.323359	-76.763689	-117.534169
29646		9.489665	-0.096604	2.196890	-0.017577	0.015249	0.001652	0.400275	-0.535540	-0.314146	-0.674010	-1.313577	-76.757126	-117.550026
29647		9.542824	-0.054385	2.207345	-0.014505	0.013775	0.001627	0.400255	-0.535507	-0.314123	-0.674059	-1.301191	-76.751337	-117.566054
29648		9.488747	-0.066110	2.185131	-0.014882	0.015465	-0.001399	0.400223	-0.535467	-0.314099	-0.674120	-1.282460	-76.744688	-117.589519
29649		9.478366	-0.044714	2.274719	-0.020984	0.014609	-0.001340	0.400176	-0.535441	-0.314059	-0.674188	-1.266841	-76.738438	-117.613052
29650		9.526878	-0.067553	2.226233	-0.018366	0.011837	-0.002116	0.400127	-0.535419	-0.314033	-0.674246	-1.248594	-76.733873	-117.638071
29651		9.550020	-0.049773	2.266407	-0.023607	0.017382	-0.000559	0.400082	-0.535392	-0.313975	-0.674322	-1.238087	-76.726203	-117.657874
29652		9.552901	-0.046917	2.233846	-0.015970	0.017502	-0.000627	0.400053	-0.535349	-0.313941	-0.674389	-1.221822	-76.718373	-117.679447
29653		9.567753	-0.066055	2.235303	-0.017302	0.020408	-0.005157	0.400010	-0.535289	-0.313912	-0.674475	-1.194277	-76.708847	-117.713214
29654		9.555517	-0.074952	2.218101	-0.016316	0.025989	-0.005925	0.399976	-0.535210	-0.313874	-0.674576	-1.165008	-76.696212	-117.748356
29655		9.497679	-0.057902	2.216573	-0.014654	0.024433	-0.008208	0.399937	-0.535129	-0.313852	-0.674673	-1.129821	-76.684544	-117.788645
29656		9.500702	-0.085730	2.199153	-0.022424	0.025134	-0.005866	0.399885	-0.535065	-0.313795	-0.674781	-1.104357	-76.672389	-117.823476
29657		9.466285	-0.050947	2.236398	-0.023009	0.024658	-0.004344	0.399835	-0.535006	-0.313734	-0.674886	-1.082629	-76.660518	-117.854923
29658		9.511027	-0.045687	2.208955	-0.022816	0.027594	0.000955	0.399810	-0.534945	-0.313653	-0.674987	-1.073847	-76.646876	-117.872844
29659		9.441741	-0.069781	2.202396	-0.022058	0.023446	-0.002833	0.399767	-0.534888	-0.313595	-0.675084	-1.054772	-76.635566	-117.900630
29660		9.521882	-0.068574	2.247474	-0.021478	0.023925	-0.004350	0.399721	-0.534828	-0.313541	-0.675184	-1.032668	-76.624078	-117.931459
29661		9.506039	-0.049571	2.250196	-0.018454	0.026259	-0.004372	0.399690	-0.534750	-0.313497	-0.675286	-1.006733	-76.611010	-117.963651
29662		9.493822	-0.058576	2.233019	-0.016867	0.021714	-0.004386	0.399653	-0.534688	-0.313462	-0.675372	-0.982088	-76.600783	-117.994378
29663		9.493337	-0.058542	2.235078	-0.020400	0.021895	-0.005111	0.399604	-0.534634	-0.313415	-0.675466	-0.959050	-76.590581	-118.025747
29664		9.477586	-0.039346	2.237410	-0.015202	0.020160	-0.006667	0.399562	-0.534570	-0.313395	-0.675550	-0.928116	-76.581259	-118.061961
29665		9.492463	-0.058184	2.238800	-0.017274	0.016612	-0.005138	0.399514	-0.534524	-0.313374	-0.675625	-0.901261	-76.573913	-118.094770
29666		9.507308	-0.077178	2.240324	-0.016423	0.023013	-0.003623	0.399483	-0.534458	-0.313337	-0.675713	-0.878307	-76.562922	-118.123501
29667		9.488180	-0.061382	2.276781	-0.011172	0.017471	-0.005185	0.399451	-0.534402	-0.313329	-0.675781	-0.850432	-76.555359	-118.154661
29668		9.479505	-0.066766	2.224865	-0.017199	0.019606	-0.007402	0.399399	-0.534343	-0.313305	-0.675868	-0.819071	-76.546345	-118.192495
29669		9.490500	-0.026280	2.231736	-0.015421	0.017989	-0.002120	0.399368	-0.534294	-0.313278	-0.675938	-0.799239	-76.538217	-118.217328
29670		9.501996	-0.048784	2.267224	-0.015874	0.016694	-0.002874	0.399331	-0.534250	-0.313252	-0.676007	-0.778127	-76.530829	-118.243847
29671		9.489743	-0.026470	2.234950	-0.012344	0.016514	-0.002144	0.399309	-0.534197	-0.313240	-0.676067	-0.756650	-76.523408	-118.268000
29672		9.462676	-0.047735	2.231748	-0.009638	0.016736	-0.005191	0.399281	-0.534137	-0.313242	-0.676130	-0.726480	-76.516008	-118.300160
29673		9.500902	-0.048509	2.271809	-0.011125	0.013665	-0.005184	0.399246	-0.534089	-0.313246	-0.676187	-0.697514	-76.510393	-118.331687
29674		9.500353	-0.016707	2.258784	-0.006427	0.014445	-0.007488	0.399215	-0.534026	-0.313269	-0.676244	-0.660147	-76.504312	-118.369359
29675		9.526898	-0.026554	2.279524	-0.011447	0.019107	-0.000629	0.399198	-0.533968	-0.313249	-0.676309	-0.640664	-76.495509	-118.391736
29676		9.499814	-0.047948	2.276369	-0.008686	0.015520	-0.003683	0.399175	-0.533912	-0.313252	-0.676365	-0.613702	-76.488780	-118.420040
29677		9.511060	-0.039121	2.297426	-0.011078	0.017410	0.002393	0.399169	-0.533864	-0.313227	-0.676418	-0.602584	-76.480967	-118.433594
29678		9.468474	-0.010401	2.280162	-0.011396	0.015299	-0.000635	0.399149	-0.533819	-0.313214	-0.676472	-0.584490	-76.474343	-118.454375
29679		9.471785	-0.038837	2.261849	-0.015196	0.017111	0.003182	0.399135	-0.533784	-0.313170	-0.676527	-0.579738	-76.466802	-118.464020
29680		9.498128	-0.018114	2.268112	-0.015143	0.013301	0.003173	0.399115	-0.533760	-0.313138	-0.676574	-0.572932	-76.461300	-118.475400
29681		9.482768	-0.031097	2.283961	-0.005000	0.011464	0.004608	0.399125	-0.533724	-0.313139	-0.676596	-0.564816	-76.456927	-118.482245
29682		9.482451	-0.031492	2.285273	-0.003885	0.016235	0.001586	0.399134	-0.533664	-0.313143	-0.676636	-0.547735	-76.449751	-118.497560
29683		9.470468	-0.040903	2.267321	-0.008137	0.016751	0.004646	0.399147	-0.533615	-0.313125	-0.676675	-0.540993	-76.442290	-118.504237
29684		9.481753	-0.032326	2.288154	-0.004282	0.011130	0.000819	0.399144	-0.533572	-0.313141	-0.676703	-0.522458	-76.438042	-118.521282
29685		9.496774	-0.051833	2.288932	-0.008669	0.012461	0.006152	0.399151	-0.533542	-0.313124	-0.676731	-0.519046	-76.432973	-118.525254
29686		9.465917	-0.014436	2.290733	-0.001472	0.011284	0.005341	0.399171	-0.533500	-0.313137	-0.676747	-0.509649	-76.428613	-118.531243
29687		9.469369	-0.042851	2.271870	0.000204	0.009731	0.003055	0.399185	-0.533458	-0.313161	-0.676760	-0.494882	-76.425251	-118.542099
29688		9.453852	-0.024026	2.273150	0.000790	0.010211	0.001539	0.399197	-0.533409	-0.313194	-0.676776	-0.475203	-76.421523	-118.557333
29689		9.468951	-0.043094	2.273609	0.008493	0.006519	0.001474	0.399224	-0.533357	-0.313260	-0.676770	-0.450900	-76.419964	-118.572700
29690		9.441842	-0.033148	2.255360	0.003679	0.013360	0.003799	0.399256	-0.533296	-0.313290	-0.676786	-0.434885	-76.414419	-118.582461
29691		9.468505	-0.043479	2.275458	0.003790	0.005740	0.003775	0.399276	-0.533262	-0.313332	-0.676781	-0.420334	-76.413409	-118.590988
29692		9.521923	-0.032489	2.300140	0.000708	0.007217	0.003801	0.399291	-0.533227	-0.313364	-0.676785	-0.406147	-76.411382	-118.600620
29693		9.509964	-0.010524	2.267048	-0.000969	0.008771	0.006088	0.399315	-0.533191	-0.313384	-0.676790	-0.397911	-76.408334	-118.604553
29694		9.536651	-0.021246	2.287026	-0.000015	0.007552	0.007591	0.399341	-0.533163	-0.313402	-0.676789	-0.393120	-76.406100	-118.604944
29695		9.494301	0.007176	2.268950	0.001021	0.009328	0.006833	0.399371	-0.533122	-0.313425	-0.676792	-0.385123	-76.402743	-118.607666
29696		9.482492	-0.002447	2.250361	0.005001	0.010442	0.008324	0.399418	-0.533075	-0.313453	-0.676789	-0.379152	-76.398850	-118.606315
29697		9.535982	-0.022999	2.289795	-0.000752	0.010951	0.001553	0.399426	-0.533027	-0.313478	-0.676811	-0.360052	-76.394667	-118.621981
29698		9.505193	0.014692	2.291370	-0.000971	0.008772	0.006089	0.399446	-0.532993	-0.313495	-0.676817	-0.352240	-76.391739	-118.626044
29699		9.501282	0.042258	2.312097	0.000202	0.009732	0.003057	0.399460	-0.532950	-0.313521	-0.676831	-0.336636	-76.388295	-118.637709
29700		9.504856	-0.017682	2.307779	-0.007189	0.015538	0.006151	0.399474	-0.532907	-0.313503	-0.676865	-0.332449	-76.381490	-118.641710
29701		9.497270	0.006028	2.363198	-0.006823	0.013839	0.009171	0.399496	-0.532874	-0.313481	-0.676888	-0.335652	-76.375730	-118.638153
29702		9.480956	-0.005976	2.256818	0.001971	0.008109	0.008340	0.399531	-0.532841	-0.313503	-0.676884	-0.331497	-76.373174	-118.636720
29703		9.453983	0.003484	2.238107	0.003704	0.002744	0.006041	0.399552	-0.532820	-0.313546	-0.676868	-0.321260	-76.373780	-118.640965
29704		9.469927	0.014387	2.345959	-0.000559	0.006326	-0.000732	0.399547	-0.532784	-0.313587	-0.676880	-0.297139	-76.372274	-118.661567
29705		9.546525	0.011823	2.424463	-0.029273	0.014046	0.000230	0.399484	-0.532777	-0.313517	-0.676955	-0.291262	-76.366290	-118.679563
29706		9.510357	0.016315	2.231163	-0.034141	0.021637	0.012401	0.399458	-0.532776	-0.313379	-0.677035	-0.317219	-76.355971	-118.668434
29707		9.463638	0.009923	2.140005	-0.032522	0.006470	0.014609	0.399422	-0.532826	-0.313273	-0.677066	-0.347854	-76.354287	-118.651206
29708		9.427100	-0.024978	2.359650	-0.026561	-0.006219	0.011497	0.399369	-0.532903	-0.313218	-0.677062	-0.367702	-76.359929	-118.641894
29709		9.415578	-0.035720	2.339884	-0.019748	0.001849	0.015273	0.399364	-0.532943	-0.313165	-0.677058	-0.392134	-76.360931	-118.622997
29710		9.441559	-0.046081	2.236951	-0.015886	-0.003774	0.011441	0.399343	-0.532990	-0.313143	-0.677044	-0.405715	-76.365171	-118.613841
29711		9.476566	-0.051736	2.309188	-0.011748	-0.011026	0.003058	0.399295	-0.533040	-0.313171	-0.677020	-0.397380	-76.373577	-118.624712
29712		9.507395	-0.090469	2.307237	-0.005219	-0.015688	0.006024	0.399265	-0.533098	-0.313223	-0.676968	-0.392244	-76.384664	-118.628526
29713		9.546022	-0.060623	2.330346	0.002655	-0.013394	0.001440	0.399248	-0.533126	-0.313308	-0.676916	-0.373067	-76.394570	-118.641900
29714		9.561421	-0.048408	2.314638	0.004004	-0.009509	0.003719	0.399245	-0.533141	-0.313385	-0.676871	-0.357067	-76.402125	-118.651454
29715		9.531123	-0.010378	2.314413	0.001198	-0.009656	-0.000805	0.399214	-0.533158	-0.313461	-0.676840	-0.332280	-76.409920	-118.672505
29716		9.492892	-0.009024	2.274833	-0.001297	-0.007695	-0.002294	0.399180	-0.533168	-0.313532	-0.676820	-0.305003	-76.416453	-118.696786
29717		9.466249	0.001179	2.254777	0.004141	-0.010323	0.001444	0.399166	-0.533182	-0.313616	-0.676778	-0.282673	-76.424454	-118.713047
29718		9.470035	0.004626	2.219569	0.003691	-0.011617	0.000685	0.399148	-0.533199	-0.313704	-0.676734	-0.259601	-76.433221	-118.730060
29719		9.508732	0.003336	2.257230	-0.001970	-0.011173	0.001483	0.399120	-0.533230	-0.313769	-0.676696	-0.242627	-76.441858	-118.744089
29720		9.478606	0.009835	2.271121	-0.003961	-0.011727	0.000738	0.399083	-0.533263	-0.313831	-0.676663	-0.224022	-76.450685	-118.761017
29721		9.512790	0.006303	2.220818	-0.008668	-0.012504	0.003039	0.399041	-0.533310	-0.313876	-0.676630	-0.212781	-76.459865	-118.772616
29722		9.517756	-0.023724	2.321797	-0.010797	-0.012244	0.004570	0.398997	-0.533365	-0.313906	-0.676599	-0.207180	-76.468979	-118.780195
29723		9.525038	-0.017195	2.252448	-0.011530	-0.008839	-0.001467	0.398937	-0.533403	-0.313940	-0.676588	-0.189392	-76.476351	-118.800916
29724		9.551947	0.003597	2.256576	-0.010987	-0.007620	0.006863	0.398908	-0.533447	-0.313954	-0.676565	-0.189303	-76.482811	-118.802937
29725		9.525348	-0.018613	2.251124	-0.014572	-0.003624	0.006149	0.398872	-0.533483	-0.313949	-0.676560	-0.189725	-76.487051	-118.806674
29726		9.540518	-0.007204	2.236282	-0.017204	-0.000848	0.006937	0.398837	-0.533516	-0.313927	-0.676564	-0.193322	-76.489631	-118.808567
29727		9.510139	-0.001540	2.251294	-0.019700	0.001114	0.005451	0.398794	-0.533546	-0.313897	-0.676581	-0.195427	-76.491077	-118.813601
29728		9.494997	-0.014973	2.265998	-0.020288	0.000633	0.006968	0.398753	-0.533580	-0.313862	-0.676594	-0.200854	-76.492808	-118.815430
29729		9.487010	-0.052957	2.226598	-0.018297	0.001187	0.007714	0.398721	-0.533606	-0.313834	-0.676604	-0.205309	-76.494069	-118.816702
29730		9.471807	-0.034870	2.226764	-0.013487	-0.005657	0.005376	0.398683	-0.533646	-0.313840	-0.676593	-0.203093	-76.499407	-118.822383
29731		9.509263	-0.035293	2.143174	-0.010507	0.000483	0.005382	0.398662	-0.533662	-0.313839	-0.676593	-0.200946	-76.501430	-118.826787
29732		9.533603	-0.020058	2.304113	-0.022684	-0.005022	0.005450	0.398600	-0.533718	-0.313812	-0.676598	-0.204168	-76.506404	-118.832294
29733		9.506812	-0.042823	2.299374	-0.032445	0.009480	0.012411	0.398564	-0.533754	-0.313706	-0.676640	-0.230036	-76.503133	-118.819625
29734		9.536742	0.011279	2.256807	-0.032220	0.008589	0.017708	0.398540	-0.533802	-0.313587	-0.676672	-0.267857	-76.500280	-118.795170
29735		9.525022	-0.031433	2.252361	-0.025657	0.010729	0.018429	0.398542	-0.533833	-0.313482	-0.676695	-0.305887	-76.496397	-118.766599
29736		9.543614	-0.049209	2.218472	-0.015909	0.003765	0.019076	0.398559	-0.533867	-0.313424	-0.676685	-0.337665	-76.496296	-118.738747
29737		9.536474	-0.058202	2.287122	-0.000459	0.003160	0.016681	0.398608	-0.533868	-0.313426	-0.676654	-0.354844	-76.496569	-118.716763
29738		9.502445	-0.056603	2.336783	-0.008982	0.007282	0.012984	0.398628	-0.533866	-0.313400	-0.676656	-0.368065	-76.494471	-118.703914
29739		9.455784	-0.061850	2.244820	-0.006803	0.003212	0.011431	0.398646	-0.533870	-0.313397	-0.676644	-0.376166	-76.494659	-118.694391
29740		9.478912	-0.045434	2.284330	-0.009886	0.004696	0.011463	0.398654	-0.533876	-0.313378	-0.676643	-0.386314	-76.494047	-118.685234
29741		9.505678	-0.057079	2.303751	-0.008433	0.000955	0.013704	0.398668	-0.533897	-0.313364	-0.676624	-0.401368	-76.495625	-118.670272
29742		9.505555	-0.027050	2.289758	-0.010928	0.002921	0.012220	0.398674	-0.533913	-0.313343	-0.676618	-0.413949	-76.496025	-118.659227
29743		9.490263	-0.009473	2.290462	-0.013059	0.003182	0.013754	0.398681	-0.533935	-0.313311	-0.676612	-0.431799	-76.496340	-118.643762
29744		9.493724	-0.007513	2.256621	-0.007532	0.003541	0.015229	0.398707	-0.533946	-0.313291	-0.676596	-0.449603	-76.496371	-118.625346
29745		9.505229	-0.000274	2.276653	-0.008033	0.006059	0.014490	0.398733	-0.533953	-0.313264	-0.676588	-0.468040	-76.495218	-118.606926
29746		9.508655	-0.029725	2.257359	-0.012068	0.008770	0.013023	0.398747	-0.533953	-0.313225	-0.676598	-0.483076	-76.492261	-118.594029
29747		9.481620	-0.020894	2.239079	-0.009486	0.009802	0.012253	0.398767	-0.533944	-0.313195	-0.676608	-0.495038	-76.488816	-118.582790
29748		9.519874	-0.023823	2.278563	-0.017099	0.005896	0.012289	0.398761	-0.533962	-0.313146	-0.676619	-0.511255	-76.487507	-118.571643
29749		9.504506	-0.006255	2.279665	-0.017599	0.008415	0.011552	0.398753	-0.533972	-0.313093	-0.676641	-0.525658	-76.484800	-118.562885
29750		9.492736	-0.016484	2.260727	-0.020498	0.005280	0.009284	0.398727	-0.533995	-0.313042	-0.676662	-0.536666	-76.483859	-118.559097
29751		9.534590	-0.047307	2.280104	-0.017602	0.008415	0.011555	0.398725	-0.534007	-0.312988	-0.676679	-0.553694	-76.481327	-118.547257
29752		9.530773	0.010657	2.286843	-0.015019	0.009448	0.010785	0.398725	-0.534006	-0.312943	-0.676700	-0.565041	-76.477989	-118.539892
29753		9.503787	-0.012051	2.282635	-0.018195	0.007934	0.013074	0.398720	-0.534023	-0.312883	-0.676717	-0.584338	-76.475561	-118.526539
29754		9.545510	-0.011247	2.288318	-0.013296	0.014708	0.006263	0.398718	-0.533994	-0.312846	-0.676758	-0.583790	-76.469236	-118.530392
29755		9.514739	-0.005478	2.304948	-0.012892	0.019812	0.007053	0.398727	-0.533954	-0.312794	-0.676809	-0.587427	-76.460309	-118.530259
29756		9.517929	-0.034114	2.286545	-0.003504	0.014540	0.004673	0.398744	-0.533904	-0.312794	-0.676838	-0.577498	-76.454089	-118.537992
29757		9.529162	0.005761	2.293565	-0.003412	0.017542	0.002420	0.398758	-0.533839	-0.312796	-0.676880	-0.560908	-76.446065	-118.552519
29758		9.505541	-0.043570	2.270215	-0.002370	0.019317	0.001668	0.398777	-0.533766	-0.312799	-0.676925	-0.543102	-76.437124	-118.567686
29759		9.489882	-0.056235	2.286683	-0.003461	0.021354	0.002449	0.398798	-0.533691	-0.312791	-0.676976	-0.528781	-76.427146	-118.580058
29760		9.501030	-0.016450	2.294056	-0.007682	0.018065	0.005489	0.398813	-0.533639	-0.312768	-0.677018	-0.523150	-76.418900	-118.585833
29761		9.458567	-0.019182	2.291398	-0.004695	0.024201	0.005512	0.398846	-0.533561	-0.312742	-0.677072	-0.516788	-76.407280	-118.590761
29762		9.488478	-0.026455	2.278438	-0.005551	0.017805	0.003958	0.398861	-0.533503	-0.312731	-0.677114	-0.506331	-76.399190	-118.600245
29763		9.442431	-0.001080	2.295723	-0.006549	0.022845	0.002487	0.398878	-0.533430	-0.312710	-0.677172	-0.494164	-76.388378	-118.612111
29764		9.472400	-0.008241	2.282554	-0.003512	0.014542	0.004679	0.398896	-0.533380	-0.312710	-0.677201	-0.484337	-76.382154	-118.619746
29765		9.483646	0.000284	2.303540	-0.004178	0.014152	-0.001381	0.398893	-0.533324	-0.312725	-0.677239	-0.461976	-76.376234	-118.640602
29766		9.498563	0.012598	2.290263	-0.005815	0.011893	0.000887	0.398888	-0.533282	-0.312733	-0.677272	-0.444579	-76.371543	-118.657383
29767		9.456308	-0.021150	2.300685	-0.004724	0.009857	0.000107	0.398882	-0.533243	-0.312751	-0.677297	-0.425870	-76.368105	-118.674684
29768		9.456118	-0.021279	2.301462	-0.002683	0.006593	0.000826	0.398877	-0.533213	-0.312780	-0.677311	-0.406647	-76.366449	-118.691498
29769		9.471248	-0.009154	2.287326	-0.005812	0.001267	0.003080	0.398859	-0.533212	-0.312802	-0.677312	-0.394848	-76.367915	-118.703044
29770		9.471246	-0.009523	2.287332	-0.010249	-0.001121	0.000819	0.398822	-0.533222	-0.312821	-0.677317	-0.380066	-76.370677	-118.719750
29771		9.448168	0.003881	2.233898	-0.013119	-0.000534	0.006147	0.398792	-0.533248	-0.312812	-0.677318	-0.379961	-76.373266	-118.723657
29772		9.486520	0.001452	2.272611	-0.015563	-0.002374	0.004635	0.398751	-0.533279	-0.312806	-0.677321	-0.377256	-76.376731	-118.731069
29773		9.486611	0.000739	2.272228	-0.014923	-0.005702	0.003089	0.398703	-0.533316	-0.312815	-0.677316	-0.369749	-76.382037	-118.742697
29774		9.498284	-0.022555	2.305349	-0.011246	-0.006707	0.001541	0.398656	-0.533348	-0.312840	-0.677306	-0.357306	-76.387995	-118.757583
29775		9.471630	-0.012439	2.285730	-0.010108	-0.001928	-0.001460	0.398611	-0.533357	-0.312868	-0.677313	-0.337063	-76.391229	-118.779691
29776		9.510049	0.017221	2.310276	-0.011294	-0.002895	0.001572	0.398570	-0.533377	-0.312886	-0.677313	-0.324646	-76.395001	-118.794577
29777		9.513737	-0.010933	2.289882	-0.007617	-0.003901	0.000022	0.398531	-0.533390	-0.312922	-0.677310	-0.305744	-76.399308	-118.814033
29778		9.487004	-0.001062	2.270588	-0.013621	0.001986	0.005418	0.398505	-0.533404	-0.312911	-0.677319	-0.303692	-76.400270	-118.819626
29779		9.528899	-0.031183	2.289513	-0.009350	0.001464	0.002352	0.398484	-0.533404	-0.312927	-0.677323	-0.292426	-76.401515	-118.831408
29780		9.525266	-0.003932	2.309695	-0.014072	0.000695	0.004653	0.398452	-0.533422	-0.312920	-0.677332	-0.288836	-76.403219	-118.838850
29781		9.483255	-0.006783	2.305141	-0.011628	0.002533	0.006167	0.398438	-0.533428	-0.312917	-0.677336	-0.286705	-76.403752	-118.842651
29782		9.502009	-0.023001	2.270859	-0.012578	0.003762	0.004669	0.398415	-0.533432	-0.312908	-0.677350	-0.282258	-76.403698	-118.850093
29783		9.513479	-0.046569	2.304772	-0.008544	0.001043	0.006133	0.398404	-0.533441	-0.312915	-0.677348	-0.279186	-76.405186	-118.853742
29784		9.513458	-0.015808	2.291010	-0.008592	0.004856	0.006166	0.398398	-0.533436	-0.312913	-0.677356	-0.275989	-76.404501	-118.857549
29785		9.498095	-0.029065	2.306052	-0.009684	0.006892	0.006950	0.398399	-0.533426	-0.312905	-0.677367	-0.275299	-76.402619	-118.858775
29786		9.482834	-0.010945	2.306856	-0.007738	0.000622	0.009914	0.398402	-0.533439	-0.312905	-0.677354	-0.280539	-76.404349	-118.853397
29787		9.513202	-0.018800	2.292051	-0.010824	0.002112	0.009949	0.398401	-0.533453	-0.312894	-0.677349	-0.287286	-76.405208	-118.847859
29788		9.482718	-0.044781	2.321088	-0.011727	-0.000470	0.008418	0.398386	-0.533476	-0.312887	-0.677343	-0.291284	-76.407568	-118.846112
29789		9.482810	-0.014440	2.306934	-0.011372	-0.002183	0.011433	0.398380	-0.533511	-0.312875	-0.677324	-0.303741	-76.411128	-118.835569
29790		9.471247	-0.055886	2.300958	-0.010139	-0.005027	0.008368	0.398363	-0.533547	-0.312882	-0.677304	-0.306771	-76.416099	-118.833881
29791		9.456262	-0.006327	2.286933	-0.012276	-0.004765	0.009902	0.398347	-0.533587	-0.312879	-0.677283	-0.314667	-76.420923	-118.828107
29792		9.456410	-0.007639	2.286313	-0.014367	-0.008315	0.011403	0.398323	-0.533646	-0.312871	-0.677254	-0.327372	-76.427768	-118.818958
29793		9.460158	-0.036821	2.265479	-0.009786	-0.006740	0.011384	0.398317	-0.533690	-0.312876	-0.677220	-0.338054	-76.433699	-118.808647
29794		9.471971	-0.029168	2.284164	-0.006370	-0.013657	0.006748	0.398291	-0.533745	-0.312918	-0.677173	-0.335213	-76.443620	-118.810777
29795		9.495357	-0.044452	2.336273	-0.012330	-0.011581	0.012119	0.398274	-0.533811	-0.312923	-0.677128	-0.349487	-76.452365	-118.798199
29796		9.526160	0.010776	2.292246	-0.009006	-0.010873	0.007553	0.398248	-0.533863	-0.312948	-0.677092	-0.350036	-76.460688	-118.798395
29797		9.514653	-0.062052	2.299556	-0.007606	-0.010813	0.009817	0.398232	-0.533916	-0.312971	-0.677048	-0.355499	-76.469068	-118.792840
29798		9.514975	-0.031603	2.284537	-0.011144	-0.010611	0.009089	0.398205	-0.533973	-0.312984	-0.677013	-0.360934	-76.477235	-118.789271
29799		9.507155	-0.069234	2.243760	-0.009150	-0.010066	0.009837	0.398188	-0.534028	-0.312999	-0.676973	-0.368463	-76.485211	-118.782423
29800		9.511901	-0.006227	2.302695	-0.013876	-0.010832	0.012144	0.398164	-0.534096	-0.312996	-0.676935	-0.382765	-76.493494	-118.771345
29801		9.488814	-0.056505	2.276489	-0.013780	-0.007826	0.009897	0.398141	-0.534151	-0.312994	-0.676906	-0.392785	-76.500218	-118.764132
29802		9.557870	-0.034676	2.285328	-0.010652	-0.013130	0.009823	0.398114	-0.534217	-0.313011	-0.676862	-0.399764	-76.509825	-118.758686
29803		9.504496	-0.046538	2.260068	-0.013328	-0.006535	0.010665	0.398101	-0.534266	-0.313008	-0.676832	-0.411991	-76.515742	-118.748438
29804		9.534996	-0.054509	2.244503	-0.010739	-0.005507	0.009896	0.398086	-0.534306	-0.313010	-0.676808	-0.419080	-76.520981	-118.742930
29805		9.474287	-0.073815	2.287901	-0.016274	-0.005846	0.008423	0.398050	-0.534359	-0.312995	-0.676794	-0.427027	-76.526497	-118.740127
29806		9.497651	-0.057680	2.326638	-0.016275	-0.005845	0.008424	0.398015	-0.534409	-0.312984	-0.676781	-0.433784	-76.531936	-118.738221
29807		9.493298	-0.091680	2.252066	-0.013926	-0.007019	0.012185	0.397995	-0.534466	-0.312969	-0.676754	-0.448849	-76.538041	-118.726902
29808		9.474122	-0.043259	2.149583	-0.002946	-0.016865	0.009724	0.397982	-0.534529	-0.313020	-0.676688	-0.451299	-76.549788	-118.721573
29809		9.421659	-0.057115	2.245842	0.000025	-0.014440	0.002138	0.397955	-0.534566	-0.313098	-0.676639	-0.433564	-76.560180	-118.735279
29810		9.487167	-0.069623	2.302222	-0.015492	-0.017489	-0.003062	0.397865	-0.534637	-0.313142	-0.676616	-0.412530	-76.572339	-118.761486
29811		9.556235	-0.079012	2.324631	-0.033577	-0.010347	0.007785	0.397777	-0.534735	-0.313084	-0.676617	-0.428465	-76.580413	-118.759956
29812		9.525247	-0.039850	2.203105	-0.040213	-0.001132	0.014762	0.397706	-0.534827	-0.312964	-0.676641	-0.464084	-76.583123	-118.742479
29813		9.498544	-0.031520	2.183709	-0.023427	-0.004737	0.016852	0.397683	-0.534902	-0.312903	-0.676624	-0.495614	-76.587953	-118.719330
29814		9.513741	-0.084198	2.196233	-0.022614	-0.012677	0.012976	0.397635	-0.534995	-0.312871	-0.676593	-0.517129	-76.597282	-118.705987
29815		9.476475	-0.086636	2.278370	-0.024373	-0.011013	0.007702	0.397570	-0.535076	-0.312846	-0.676578	-0.526944	-76.605716	-118.705203
29816		9.495370	-0.103256	2.242811	-0.018877	-0.006867	0.009210	0.397529	-0.535136	-0.312826	-0.676565	-0.537160	-76.611736	-118.701276
29817		9.491122	-0.105348	2.153825	-0.015119	-0.015499	0.007571	0.397479	-0.535217	-0.312838	-0.676525	-0.542273	-76.622824	-118.700544
29818		9.522653	-0.147210	2.273039	-0.003940	-0.019332	0.000600	0.397429	-0.535276	-0.312915	-0.676472	-0.523462	-76.636031	-118.717656
29819		9.538382	-0.103393	2.243005	0.000964	-0.015674	0.003624	0.397406	-0.535317	-0.312995	-0.676416	-0.507691	-76.647015	-118.728793
29820		9.535195	-0.107592	2.275518	0.001457	-0.018196	0.004353	0.397385	-0.535367	-0.313078	-0.676350	-0.494765	-76.659550	-118.736677
29821		9.535794	-0.044545	2.246113	-0.001845	-0.015783	-0.000899	0.397340	-0.535409	-0.313159	-0.676306	-0.471445	-76.670788	-118.757375
29822		9.497569	-0.074291	2.219917	0.000469	-0.013151	0.002897	0.397320	-0.535442	-0.313233	-0.676258	-0.455417	-76.680438	-118.769028
29823		9.521278	-0.025623	2.244167	0.005653	-0.011099	0.001349	0.397316	-0.535452	-0.313328	-0.676207	-0.432730	-76.688815	-118.783613
29824		9.536732	-0.013113	2.228667	0.011785	-0.010280	0.001296	0.397325	-0.535451	-0.313439	-0.676152	-0.406243	-76.696825	-118.799350
29825		9.540360	-0.040646	2.207627	0.013883	-0.006732	-0.000206	0.397339	-0.535431	-0.313553	-0.676107	-0.374623	-76.702838	-118.819203
29826		9.521816	-0.025081	2.241891	0.015249	-0.002866	0.002094	0.397371	-0.535398	-0.313659	-0.676064	-0.347922	-76.706594	-118.833118
29827		9.491507	-0.049875	2.270385	0.009154	-0.007495	0.002111	0.397381	-0.535395	-0.313752	-0.676017	-0.326099	-76.713115	-118.845595
29828		9.537246	-0.012530	2.226471	0.006625	-0.001703	0.000675	0.397388	-0.535374	-0.313830	-0.675995	-0.300859	-76.716206	-118.863086
29829		9.510519	-0.002111	2.207160	0.002846	-0.003699	0.004487	0.397398	-0.535370	-0.313893	-0.675963	-0.286687	-76.720361	-118.870681
29830		9.510596	-0.002396	2.206831	0.003440	-0.003214	0.002969	0.397401	-0.535363	-0.313957	-0.675936	-0.268839	-76.724309	-118.882452
29831		9.529285	-0.017913	2.171912	0.010027	-0.001107	0.003681	0.397426	-0.535340	-0.314035	-0.675903	-0.249939	-76.727220	-118.891758
29832		9.510562	-0.034381	2.220442	0.011431	-0.001051	0.005943	0.397464	-0.535315	-0.314114	-0.675864	-0.234700	-76.729919	-118.896143
29833		9.510679	-0.002940	2.206470	0.012618	-0.000081	0.002907	0.397498	-0.535280	-0.314204	-0.675830	-0.211765	-76.732087	-118.907438
29834		9.510617	-0.003078	2.206737	0.003821	0.005696	0.003808	0.397519	-0.535244	-0.314249	-0.675825	-0.195632	-76.730924	-118.917221
29835		9.518663	0.001513	2.260923	0.002909	0.003118	0.002276	0.397532	-0.535218	-0.314300	-0.675815	-0.178493	-76.731435	-118.928436
29836		9.537213	-0.014140	2.226603	0.006767	0.005004	0.006048	0.397567	-0.535182	-0.314351	-0.675799	-0.166123	-76.730664	-118.932619
29837		9.552304	-0.001906	2.212640	0.012087	0.006250	0.002214	0.397603	-0.535126	-0.314426	-0.675787	-0.141182	-76.729140	-118.946903
29838		9.533529	0.013543	2.247902	0.013629	0.005502	0.002193	0.397645	-0.535068	-0.314509	-0.675770	-0.115516	-76.728088	-118.960708
29839		9.511053	0.024967	2.317928	-0.004457	0.019580	0.003260	0.397664	-0.535000	-0.314502	-0.675816	-0.101923	-76.718941	-118.972486
29840		9.506042	0.023094	2.231862	-0.004975	0.018988	0.012363	0.397711	-0.534950	-0.314469	-0.675843	-0.111550	-76.710150	-118.960980
29841		9.492980	0.016190	2.091913	0.007917	0.017297	0.010707	0.397782	-0.534882	-0.314482	-0.675849	-0.111794	-76.702622	-118.952226
29842		9.485429	-0.023672	2.175431	0.012718	0.010437	0.008322	0.397850	-0.534819	-0.314536	-0.675834	-0.101516	-76.698735	-118.950756
29843		9.519966	-0.061494	2.263036	0.016293	0.006419	0.009010	0.397924	-0.534764	-0.314609	-0.675800	-0.090932	-76.697120	-118.947302
29844		9.470937	-0.008188	2.299532	0.010264	0.008608	0.006812	0.397977	-0.534710	-0.314662	-0.675787	-0.078413	-76.694281	-118.949579
29845		9.531386	-0.022281	2.270330	0.003047	0.009829	0.007650	0.398016	-0.534667	-0.314687	-0.675786	-0.072138	-76.690724	-118.949543
29846		9.531164	-0.023026	2.271254	-0.001087	0.009554	0.008444	0.398045	-0.534635	-0.314696	-0.675790	-0.070077	-76.687343	-118.947757
29847		9.554297	-0.006739	2.311329	0.000806	0.007089	0.011439	0.398083	-0.534614	-0.314706	-0.675779	-0.074261	-76.685494	-118.938853
29848		9.504197	0.016878	2.239759	-0.003012	0.008908	0.015285	0.398130	-0.534599	-0.314691	-0.675771	-0.089862	-76.682477	-118.920051
29849		9.522646	0.000070	2.206048	0.007706	0.011288	0.015211	0.398207	-0.534554	-0.314709	-0.675753	-0.098494	-76.678093	-118.902166
29850		9.534072	0.007531	2.226703	0.005848	0.009943	0.012181	0.398268	-0.534513	-0.314730	-0.675739	-0.101488	-76.674485	-118.891102
29851		9.476539	-0.007925	2.237779	0.001993	0.015575	0.016063	0.398343	-0.534469	-0.314714	-0.675737	-0.118106	-76.667858	-118.868486
29852		9.491514	0.002762	2.224496	-0.001756	0.009774	0.019837	0.398409	-0.534456	-0.314690	-0.675720	-0.143951	-76.664335	-118.838416
29853		9.533277	0.002786	2.230115	-0.004104	0.010951	0.016076	0.398461	-0.534437	-0.314666	-0.675716	-0.162608	-76.660196	-118.816855
29854		9.479595	0.022202	2.192858	-0.010832	0.009655	0.017642	0.398495	-0.534439	-0.314617	-0.675717	-0.188320	-76.656740	-118.792264
29855		9.517783	0.018240	2.232474	-0.015422	0.008093	0.017668	0.398514	-0.534456	-0.314555	-0.675721	-0.217006	-76.654261	-118.767498
29856		9.490867	0.026871	2.214210	-0.014372	0.009866	0.016919	0.398537	-0.534462	-0.314495	-0.675730	-0.242975	-76.650680	-118.744728
29857		9.505754	0.005828	2.214438	-0.006666	0.006117	0.016816	0.398577	-0.534465	-0.314471	-0.675715	-0.264319	-76.649201	-118.721825
29858		9.478927	0.015020	2.195807	-0.004246	0.004239	0.010705	0.398597	-0.534461	-0.314474	-0.675706	-0.269531	-76.648857	-118.714424
29859		9.505540	0.003094	2.215359	-0.008523	0.004773	0.013784	0.398620	-0.534464	-0.314457	-0.675697	-0.283025	-76.648046	-118.700332
29860		9.493779	-0.006897	2.196151	-0.009923	0.004718	0.011519	0.398628	-0.534471	-0.314437	-0.675696	-0.293449	-76.647424	-118.690918
29861		9.505351	0.000417	2.216172	-0.012376	0.002892	0.010005	0.398626	-0.534485	-0.314420	-0.675695	-0.301687	-76.647826	-118.684520
29862		9.520561	0.011629	2.202044	-0.013321	0.004126	0.008508	0.398615	-0.534495	-0.314398	-0.675703	-0.306796	-76.647553	-118.682569
29863		9.516844	0.006643	2.236539	-0.013919	0.003643	0.010028	0.398602	-0.534514	-0.314368	-0.675710	-0.316136	-76.647655	-118.677274
29864		9.532049	0.017653	2.222452	-0.019597	0.004124	0.010842	0.398582	-0.534541	-0.314318	-0.675724	-0.330475	-76.647376	-118.669533
29865		9.528326	0.012466	2.256958	-0.017459	0.003857	0.009304	0.398561	-0.534562	-0.314281	-0.675737	-0.339408	-76.647192	-118.666061
29866		9.516513	0.002745	2.237956	-0.019382	0.010139	0.006350	0.398536	-0.534561	-0.314233	-0.675775	-0.342693	-76.643480	-118.669553
29867		9.477947	0.003755	2.200078	-0.021978	0.009118	0.007123	0.398508	-0.534566	-0.314180	-0.675812	-0.348356	-76.640289	-118.671307
29868		9.516114	0.000697	2.239654	-0.018156	0.007296	0.003275	0.398470	-0.534568	-0.314149	-0.675847	-0.343562	-76.638217	-118.682381
29869		9.515944	-0.000035	2.240374	-0.016159	0.007833	0.004023	0.398440	-0.534566	-0.314121	-0.675880	-0.339335	-76.635842	-118.692057
29870		9.489063	0.009867	2.222069	-0.019244	0.009336	0.004068	0.398405	-0.534564	-0.314080	-0.675920	-0.337052	-76.632598	-118.701190
29871		9.461633	-0.043317	2.231589	-0.016507	0.009554	0.001010	0.398370	-0.534550	-0.314058	-0.675962	-0.325666	-76.629233	-118.717785
29872		9.491749	-0.050640	2.217546	-0.012513	0.010627	0.002506	0.398351	-0.534528	-0.314042	-0.675999	-0.315754	-76.625254	-118.730797
29873		9.503195	-0.042723	2.238077	-0.018161	0.007298	0.003279	0.398311	-0.534531	-0.314010	-0.676034	-0.311499	-76.623338	-118.741686
29874		9.484327	-0.028272	2.273456	-0.018903	0.007617	0.007086	0.398286	-0.534539	-0.313966	-0.676063	-0.316330	-76.621068	-118.743308
29875		9.506490	-0.040915	2.205504	-0.017994	0.010194	0.008627	0.398276	-0.534539	-0.313917	-0.676092	-0.325296	-76.617413	-118.739585
29876		9.514553	-0.005785	2.246268	-0.017363	0.006867	0.007066	0.398253	-0.534546	-0.313880	-0.676117	-0.329205	-76.615574	-118.741248
29877		9.510731	-0.010812	2.281008	-0.017963	0.006383	0.008585	0.398234	-0.534558	-0.313838	-0.676138	-0.337418	-76.614035	-118.738630
29878		9.544861	0.016764	2.218829	-0.017854	0.009392	0.006342	0.398212	-0.534557	-0.313796	-0.676172	-0.339829	-76.610751	-118.742121
29879		9.544331	-0.015759	2.233691	-0.014204	0.012186	0.004826	0.398193	-0.534538	-0.313763	-0.676213	-0.335835	-76.605869	-118.750687
29880		9.517128	-0.037289	2.229422	-0.016513	0.009561	0.001019	0.398156	-0.534525	-0.313739	-0.676256	-0.324673	-76.602506	-118.767342
29881		9.543511	-0.048542	2.249741	-0.008556	0.015515	0.004059	0.398161	-0.534482	-0.313721	-0.676296	-0.317163	-76.595815	-118.775703
29882		9.555125	-0.008823	2.256974	-0.007325	0.012673	0.000977	0.398153	-0.534440	-0.313722	-0.676333	-0.300614	-76.590668	-118.792484
29883		9.519846	-0.034613	2.199482	-0.010478	0.021803	0.001116	0.398151	-0.534376	-0.313693	-0.676399	-0.286555	-76.580350	-118.808797
29884		9.512271	-0.011291	2.255892	-0.008138	0.020615	0.004879	0.398167	-0.534315	-0.313666	-0.676450	-0.279778	-76.570640	-118.816012
29885		9.469818	-0.013523	2.253102	-0.003999	0.020884	0.004089	0.398191	-0.534248	-0.313650	-0.676496	-0.271159	-76.561062	-118.823197
29886		9.511004	-0.043911	2.273708	-0.001403	0.021905	0.003322	0.398222	-0.534167	-0.313646	-0.676544	-0.256801	-76.550617	-118.834240
29887		9.483895	-0.033452	2.256512	-0.002313	0.019331	0.001780	0.398242	-0.534097	-0.313646	-0.676587	-0.241839	-76.541904	-118.846677
29888		9.502211	-0.049183	2.223704	-0.006601	0.019865	0.004860	0.398261	-0.534036	-0.313625	-0.676634	-0.234196	-76.532622	-118.853877
29889		9.482970	-0.034273	2.260381	-0.004346	0.022610	0.001081	0.398281	-0.533952	-0.313620	-0.676690	-0.216266	-76.521715	-118.869634
29890		9.482489	-0.034497	2.262394	-0.000319	0.019867	0.002533	0.398309	-0.533875	-0.313626	-0.676732	-0.199496	-76.512436	-118.882520
29891		9.562437	-0.003808	2.294761	-0.002568	0.031574	0.004221	0.398356	-0.533769	-0.313594	-0.676803	-0.190666	-76.496779	-118.888837
29892		9.538257	-0.053012	2.271814	-0.004191	0.025503	0.006436	0.398395	-0.533686	-0.313566	-0.676858	-0.185418	-76.484263	-118.892157
29893		9.507935	0.016496	2.261712	-0.002084	0.029050	0.004949	0.398443	-0.533587	-0.313541	-0.676920	-0.177196	-76.469941	-118.897246
29894		9.514179	-0.039591	2.223782	-0.003742	0.026792	0.007212	0.398488	-0.533500	-0.313510	-0.676976	-0.173547	-76.456685	-118.898657
29895		9.449306	0.001022	2.276572	-0.003780	0.030607	0.007265	0.398542	-0.533399	-0.313474	-0.677041	-0.169842	-76.441299	-118.899585
29896		9.478732	-0.038226	2.278025	-0.003711	0.022980	0.007165	0.398581	-0.533324	-0.313450	-0.677087	-0.166100	-76.430226	-118.901073
29897		9.448185	-0.000658	2.281219	-0.001377	0.021791	0.010932	0.398639	-0.533254	-0.313429	-0.677119	-0.169516	-76.419770	-118.893496
29898		9.462701	-0.020517	2.282753	0.006264	0.021960	0.003287	0.398690	-0.533157	-0.313451	-0.677154	-0.150877	-76.409289	-118.904429
29899		9.473743	-0.012335	2.304667	0.004569	0.023516	0.005599	0.398749	-0.533062	-0.313460	-0.677191	-0.138963	-76.397970	-118.909106
29900		9.476742	-0.040570	2.286249	0.006032	0.015937	0.007767	0.398805	-0.532993	-0.313482	-0.677202	-0.131133	-76.390932	-118.909056
29901		9.533714	-0.027016	2.278476	0.004150	0.018415	0.004776	0.398852	-0.532913	-0.313503	-0.677227	-0.116910	-76.382460	-118.916317
29902		9.475920	-0.041503	2.289638	0.002003	0.018684	0.006314	0.398896	-0.532840	-0.313510	-0.677255	-0.107951	-76.373850	-118.919805
29903		9.502424	-0.021224	2.296946	0.004450	0.020506	0.007842	0.398956	-0.532762	-0.313515	-0.677279	-0.102705	-76.364441	-118.918216
29904		9.486942	-0.002710	2.299408	0.005841	0.020556	0.010114	0.399027	-0.532682	-0.313521	-0.677298	-0.100523	-76.354754	-118.912467
29905		9.528389	-0.001643	2.306491	0.010700	0.024319	0.005579	0.399100	-0.532574	-0.313546	-0.677328	-0.086010	-76.343067	-118.916862
29906		9.500927	-0.022861	2.303115	0.008136	0.019486	0.006290	0.399162	-0.532487	-0.313572	-0.677348	-0.073510	-76.333997	-118.920379
29907		9.458902	0.006689	2.286305	0.009038	0.022063	0.007840	0.399236	-0.532391	-0.313592	-0.677370	-0.063746	-76.323464	-118.920461
29908		9.473471	-0.013041	2.287614	0.013703	0.015987	0.007732	0.399313	-0.532306	-0.313640	-0.677370	-0.051477	-76.316398	-118.920456
29909		9.435071	-0.010937	2.249950	0.015550	0.013627	0.003133	0.399378	-0.532217	-0.313714	-0.677367	-0.027312	-76.310633	-118.931022
29910		9.415869	0.004325	2.285755	0.014341	0.012658	0.006166	0.399446	-0.532140	-0.313775	-0.677359	-0.011017	-76.305474	-118.934785
29911		9.446011	-0.002905	2.272178	0.012192	0.012928	0.007702	0.399508	-0.532077	-0.313816	-0.677353	-0.002375	-76.300599	-118.933301
29912		9.457243	0.005142	2.293162	0.006659	0.012614	0.006209	0.399555	-0.532015	-0.313850	-0.677358	0.009405	-76.295465	-118.936947
29913		9.453076	0.000368	2.328276	0.001038	0.009173	0.014550	0.399615	-0.531986	-0.313855	-0.677343	-0.001255	-76.292143	-118.919960
29914		9.456817	0.003057	2.294925	0.002282	0.006327	0.011467	0.399659	-0.531963	-0.313873	-0.677327	-0.004333	-76.290611	-118.910893
29915		9.448702	-0.034041	2.255162	0.010638	-0.000775	0.009809	0.399706	-0.531944	-0.313939	-0.677283	0.002005	-76.293117	-118.906621
29916		9.449194	-0.002959	2.241153	0.010340	-0.002867	0.006744	0.399741	-0.531929	-0.314016	-0.677239	0.014639	-76.296854	-118.908976
29917		9.418566	0.000657	2.377751	0.012154	-0.001415	0.002196	0.399767	-0.531900	-0.314106	-0.677205	0.037599	-76.299941	-118.921201
29918		9.548369	0.009120	2.358673	-0.002301	0.001075	0.003825	0.399764	-0.531892	-0.314140	-0.677197	0.049856	-76.301417	-118.930623
29919		9.502560	0.005866	2.266430	-0.013147	0.013873	0.011649	0.399774	-0.531880	-0.314085	-0.677226	0.036032	-76.295818	-118.920668
29920		9.456722	0.002005	2.174364	-0.019818	0.004962	0.013085	0.399762	-0.531908	-0.314027	-0.677238	0.016484	-76.295070	-118.907683
29921		9.459575	-0.062334	2.289461	-0.019311	-0.015837	0.015844	0.399728	-0.532011	-0.314005	-0.677188	-0.009210	-76.306325	-118.888089
29922		9.440914	-0.048940	2.322961	-0.007868	-0.006293	0.019712	0.399752	-0.532063	-0.313993	-0.677138	-0.037518	-76.312022	-118.859042
29923		9.418892	-0.004498	2.255363	-0.003155	-0.001731	0.017470	0.399790	-0.532090	-0.313992	-0.677095	-0.059218	-76.315237	-118.834037
29924		9.430114	-0.028917	2.288260	-0.000930	-0.013333	0.008183	0.399783	-0.532134	-0.314047	-0.677038	-0.056467	-76.324970	-118.832866
29925		9.468963	-0.000465	2.312175	-0.001988	-0.015104	0.008926	0.399771	-0.532192	-0.314097	-0.676977	-0.057243	-76.335867	-118.829288
29926		9.507899	0.028046	2.335778	0.007267	-0.019635	0.008814	0.399778	-0.532242	-0.314192	-0.676889	-0.051296	-76.349210	-118.826572
29927		9.526720	-0.019534	2.313294	0.014460	-0.017068	0.008049	0.399803	-0.532272	-0.314305	-0.676799	-0.040390	-76.361349	-118.825278
29928		9.500522	-0.008952	2.292692	0.016694	-0.010514	0.004325	0.399834	-0.532266	-0.314425	-0.676729	-0.018409	-76.369467	-118.833503
29929		9.520145	0.007135	2.243131	0.011041	-0.013834	0.005074	0.399843	-0.532290	-0.314523	-0.676659	-0.003742	-76.379836	-118.838722
29930		9.478890	0.036991	2.223356	0.014512	-0.006426	0.005912	0.399880	-0.532277	-0.314623	-0.676601	0.013264	-76.385612	-118.843114
29931		9.520528	0.006411	2.241510	0.014691	-0.007343	0.011220	0.399936	-0.532276	-0.314712	-0.676528	0.016994	-76.392060	-118.833649
29932		9.474820	0.000433	2.270010	0.017895	-0.005843	0.008942	0.399993	-0.532259	-0.314814	-0.676460	0.028776	-76.397502	-118.830674
29933		9.463402	-0.008560	2.249658	0.011758	-0.006636	0.008968	0.400035	-0.532257	-0.314898	-0.676397	0.036414	-76.403467	-118.826755
29934		9.517060	0.000725	2.273830	0.006527	-0.004853	0.010541	0.400069	-0.532262	-0.314956	-0.676347	0.037896	-76.408342	-118.819882
29935		9.486761	0.006825	2.288194	-0.000546	-0.004407	0.009067	0.400082	-0.532275	-0.314994	-0.676310	0.039089	-76.412884	-118.816524
29936		9.555314	-0.003331	2.312159	0.000964	-0.001348	0.009098	0.400102	-0.532277	-0.315030	-0.676281	0.040796	-76.415751	-118.813163
29937		9.547728	-0.009035	2.257904	-0.002815	-0.007143	0.012847	0.400111	-0.532314	-0.315052	-0.676236	0.031685	-76.422023	-118.801511
29938		9.529493	0.036781	2.278207	0.003743	-0.001248	0.013644	0.400154	-0.532317	-0.315085	-0.676193	0.024193	-76.424834	-118.787048
29939		9.505880	-0.012913	2.252434	0.002353	-0.001298	0.011371	0.400184	-0.532320	-0.315119	-0.676157	0.021370	-76.427721	-118.778384
29940		9.487599	0.033154	2.272977	0.003894	-0.002054	0.011353	0.400219	-0.532321	-0.315160	-0.676116	0.019395	-76.430993	-118.769508
29941		9.448532	-0.028636	2.261489	-0.004568	-0.001656	0.007607	0.400219	-0.532332	-0.315183	-0.676097	0.021975	-76.434005	-118.770103
29942		9.491069	0.003593	2.252342	-0.009163	-0.003202	0.007615	0.400204	-0.532358	-0.315192	-0.676081	0.021394	-76.437934	-118.770358
29943		9.491116	0.002698	2.252147	-0.006110	-0.000900	0.007626	0.400201	-0.532373	-0.315205	-0.676065	0.021041	-76.440771	-118.769257
29944		9.518185	0.022564	2.257414	-0.001638	-0.002362	0.009862	0.400215	-0.532384	-0.315232	-0.676036	0.019430	-76.444219	-118.764016
29945		9.499047	0.008502	2.183233	-0.005116	-0.009767	0.009029	0.400207	-0.532425	-0.315266	-0.675992	0.018248	-76.451846	-118.760795
29946		9.476392	0.015779	2.373545	-0.019170	0.001660	0.011539	0.400187	-0.532460	-0.315221	-0.675997	0.002596	-76.452989	-118.751444
29947		9.480685	0.049181	2.326089	-0.033020	0.008359	0.019313	0.400164	-0.532515	-0.315094	-0.676027	-0.039776	-76.450434	-118.723071
29948		9.480068	0.017820	2.218564	-0.030369	0.005449	0.026106	0.400169	-0.532583	-0.314965	-0.676030	-0.096469	-76.449393	-118.678105
29949		9.494402	-0.035936	2.232098	-0.022814	-0.001232	0.020653	0.400163	-0.532653	-0.314888	-0.676014	-0.136877	-76.452395	-118.645795
29950		9.464077	-0.031131	2.246615	-0.008817	-0.005035	0.018237	0.400182	-0.532701	-0.314873	-0.675972	-0.162582	-76.457358	-118.620002
29951		9.486853	-0.047906	2.299278	-0.018467	-0.009407	0.017479	0.400167	-0.532782	-0.314838	-0.675934	-0.191780	-76.464860	-118.596138
29952		9.448940	-0.047572	2.259466	-0.026631	-0.006906	0.016806	0.400130	-0.532870	-0.314771	-0.675918	-0.224348	-76.470892	-118.573786
29953		9.472255	-0.032791	2.298421	-0.026962	-0.005182	0.013792	0.400090	-0.532945	-0.314711	-0.675910	-0.249659	-76.475885	-118.558323
29954		9.511076	-0.005670	2.322970	-0.025549	-0.008949	0.016015	0.400051	-0.533037	-0.314654	-0.675888	-0.279790	-76.483084	-118.537841
29955		9.545505	-0.010945	2.273316	-0.024643	-0.006374	0.017568	0.400022	-0.533120	-0.314591	-0.675868	-0.312657	-76.488851	-118.514047
29956		9.511438	-0.010011	2.321473	-0.024013	-0.009705	0.015999	0.399986	-0.533211	-0.314541	-0.675842	-0.341931	-76.496478	-118.493542
29957		9.554155	0.021083	2.311956	-0.020829	-0.004395	0.013772	0.399959	-0.533274	-0.314497	-0.675828	-0.364321	-76.501128	-118.478136
29958		9.545897	-0.016914	2.271631	-0.019466	-0.000535	0.016100	0.399950	-0.533325	-0.314443	-0.675818	-0.391130	-76.503497	-118.457489
29959		9.545351	-0.050393	2.285199	-0.018229	-0.003382	0.013010	0.399926	-0.533380	-0.314406	-0.675806	-0.410346	-76.507626	-118.444321
29960		9.518915	-0.041194	2.265678	-0.018382	-0.002578	0.015306	0.399914	-0.533434	-0.314362	-0.675791	-0.434692	-76.511165	-118.425568
29961		9.495739	-0.059815	2.225891	-0.016386	-0.002050	0.016061	0.399909	-0.533487	-0.314319	-0.675772	-0.461132	-76.514638	-118.403908
29962		9.534492	-0.032729	2.250910	-0.022532	-0.002828	0.016095	0.399887	-0.533552	-0.314260	-0.675761	-0.489771	-76.518313	-118.383186
29963		9.519010	-0.047575	2.265154	-0.026225	0.001901	0.025322	0.399899	-0.533622	-0.314154	-0.675748	-0.543536	-76.519233	-118.338405
29964		9.504132	-0.030937	2.265681	-0.023297	-0.002507	0.019913	0.399889	-0.533694	-0.314081	-0.675732	-0.581763	-76.522695	-118.308275
29965		9.519021	-0.052599	2.264995	-0.019630	0.000273	0.018408	0.399889	-0.533747	-0.314019	-0.675718	-0.615147	-76.524764	-118.280921
29966		9.492528	-0.043754	2.245763	-0.018090	-0.000486	0.018387	0.399890	-0.533799	-0.313964	-0.675702	-0.646717	-76.527069	-118.254569
29967		9.491895	-0.077505	2.259429	-0.013943	-0.000236	0.017601	0.399900	-0.533840	-0.313925	-0.675682	-0.673549	-76.529225	-118.230710
29968		9.496435	-0.043820	2.211462	-0.011926	-0.003524	0.018299	0.399913	-0.533889	-0.313896	-0.675649	-0.701483	-76.533265	-118.204465
