// General information: 
//  MT Manager version: 2025.0.0 
//  XDA version: 2025.0.0 build 241121001 rev 1732180523 built on 2024-11-21
// Device information: 
//  DeviceId: 00B4245A
//  ProductCode: MTW2-3A7G6
//  Firmware Version: 4.14.0
//  Hardware Version: 1.1.0
// Device settings: 
//  Filter Profile: human(46.1)
//  Option Flags: Orientation Smoother Disabled, Position/Velocity Smoother Disabled, Continuous Zero Rotation Update Disabled, AHS Disabled, ICC Disabled
// Coordinate system: ENU
PacketCounter	SampleTimeFine	Acc_X	Acc_Y	Acc_Z	Gyr_X	Gyr_Y	Gyr_Z	Quat_q0	Quat_q1	Quat_q2	Quat_q3	Roll	Pitch	Yaw
11300		9.483602	-0.026942	2.352847	-0.009186	0.008189	0.036741	0.356114	-0.548240	-0.283593	-0.701563	1.791690	-76.223706	-127.580760
11301		9.464068	-0.004889	2.340927	-0.008106	0.006076	0.035222	0.356211	-0.548272	-0.283513	-0.701521	1.727857	-76.222988	-127.515321
11302		9.472038	-0.029944	2.332807	-0.010165	0.004952	0.038579	0.356321	-0.548319	-0.283421	-0.701466	1.652134	-76.223447	-127.437961
11303		9.495929	0.030913	2.333780	-0.014641	0.005084	0.037300	0.356406	-0.548369	-0.283315	-0.701426	1.579774	-76.223292	-127.367598
11304		9.475732	0.015745	2.342580	-0.019964	0.003464	0.041692	0.356514	-0.548432	-0.283198	-0.701370	1.493063	-76.224125	-127.281702
11305		9.476413	0.048223	2.322118	-0.015742	0.007205	0.038843	0.356605	-0.548478	-0.283079	-0.701335	1.416344	-76.222730	-127.207498
11306		9.504495	0.033859	2.305595	-0.016266	0.003504	0.037915	0.356702	-0.548534	-0.282977	-0.701283	1.339763	-76.223621	-127.131398
11307		9.490037	0.017150	2.254773	-0.010599	0.002744	0.041528	0.356809	-0.548591	-0.282877	-0.701224	1.259964	-76.224768	-127.050990
11308		9.526862	0.016934	2.348536	-0.016224	0.000832	0.038079	0.356903	-0.548655	-0.282782	-0.701165	1.184326	-76.227003	-126.975623
11309		9.501662	0.040025	2.396308	-0.032494	0.016654	0.039458	0.356963	-0.548699	-0.282586	-0.701179	1.096163	-76.220106	-126.899517
11310		9.486915	0.022831	2.346617	-0.035715	0.013486	0.040654	0.357024	-0.548759	-0.282388	-0.701180	1.002645	-76.215164	-126.818227
11311		9.477886	0.003959	2.237546	-0.026328	0.019597	0.044031	0.357121	-0.548789	-0.282196	-0.701185	0.907387	-76.206565	-126.731173
11312		9.465457	-0.032699	2.238512	-0.005835	0.007502	0.039799	0.357239	-0.548820	-0.282108	-0.701137	0.834524	-76.204937	-126.655468
11313		9.482011	-0.043707	2.340863	-0.001378	0.000519	0.037532	0.357354	-0.548862	-0.282055	-0.701066	0.769476	-76.207161	-126.584800
11314		9.464924	-0.041503	2.379562	-0.007508	0.008602	0.040257	0.357469	-0.548894	-0.281956	-0.701022	0.694497	-76.204955	-126.508284
11315		9.462505	-0.025406	2.329391	-0.015481	0.005282	0.032305	0.357534	-0.548938	-0.281860	-0.700994	0.633421	-76.204374	-126.450027
11316		9.491562	-0.002639	2.291736	-0.027012	0.000746	0.032154	0.357569	-0.549019	-0.281735	-0.700962	0.563636	-76.206792	-126.388622
11317		9.505990	0.006061	2.342806	-0.025766	-0.002562	0.034630	0.357603	-0.549112	-0.281610	-0.700922	0.491396	-76.210686	-126.324937
11318		9.515035	0.017682	2.312961	-0.023079	-0.003095	0.032513	0.357660	-0.549191	-0.281517	-0.700869	0.424814	-76.214866	-126.261915
11319		9.466774	0.013753	2.338098	-0.014311	-0.002191	0.031088	0.357713	-0.549257	-0.281442	-0.700820	0.367330	-76.218498	-126.206668
11320		9.487010	0.021612	2.329548	-0.008350	-0.002238	0.027929	0.357801	-0.549297	-0.281416	-0.700754	0.319990	-76.222044	-126.153854
11321		9.506228	-0.006727	2.341838	-0.001926	-0.002751	0.021998	0.357856	-0.549330	-0.281410	-0.700703	0.290798	-76.225948	-126.120430
11322		9.503025	-0.026064	2.311749	-0.011217	-0.000505	0.026059	0.357913	-0.549377	-0.281361	-0.700656	0.244602	-76.228915	-126.073610
11323		9.525453	-0.037412	2.354008	-0.006975	-0.003624	0.019628	0.357945	-0.549419	-0.281346	-0.700613	0.218027	-76.233304	-126.045860
11324		9.506362	-0.013578	2.341265	-0.004792	-0.001019	0.020128	0.357989	-0.549454	-0.281327	-0.700571	0.188421	-76.236699	-126.014139
11325		9.509653	0.001236	2.371026	-0.004170	-0.002675	0.021364	0.358035	-0.549490	-0.281315	-0.700524	0.159351	-76.240540	-125.982167
11326		9.523406	-0.023651	2.302526	0.000760	-0.003287	0.019881	0.358108	-0.549513	-0.281336	-0.700460	0.134888	-76.244900	-125.949361
11327		9.487416	0.006361	2.327983	-0.003712	-0.003136	0.018597	0.358146	-0.549545	-0.281334	-0.700416	0.112526	-76.248996	-125.924026
11328		9.465125	0.013683	2.285159	-0.001590	-0.004697	0.015380	0.358191	-0.549574	-0.281357	-0.700361	0.096072	-76.254328	-125.901628
11329		9.494453	0.038057	2.246753	-0.009635	-0.005758	0.021914	0.358220	-0.549632	-0.281330	-0.700312	0.062522	-76.259924	-125.868269
11330		9.446322	0.035699	2.271393	-0.009239	-0.010386	0.015428	0.358241	-0.549693	-0.281339	-0.700249	0.041142	-76.268534	-125.844614
11331		9.447721	0.071140	2.249282	-0.000477	-0.016340	0.010419	0.358240	-0.549755	-0.281394	-0.700179	0.039762	-76.280183	-125.838971
11332		9.484053	0.038343	2.222228	0.002698	-0.010499	0.009091	0.358277	-0.549776	-0.281474	-0.700112	0.044161	-76.288246	-125.833219
11333		9.498841	0.050117	2.272131	0.008762	-0.015914	0.006211	0.358287	-0.549814	-0.281572	-0.700037	0.057961	-76.299649	-125.837751
11334		9.456579	0.047926	2.236617	0.005903	-0.014181	0.004336	0.358309	-0.549842	-0.281676	-0.699961	0.072107	-76.310294	-125.840946
11335		9.488336	0.054152	2.247990	0.001941	-0.017171	0.000427	0.358279	-0.549889	-0.281769	-0.699903	0.095649	-76.322412	-125.859525
11336		9.451603	0.049309	2.293151	-0.000342	-0.014416	-0.000360	0.358255	-0.549925	-0.281858	-0.699851	0.119072	-76.333055	-125.877631
11337		9.479015	0.001953	2.295287	-0.005757	-0.020178	0.000334	0.358199	-0.549995	-0.281929	-0.699796	0.138510	-76.346892	-125.896523
11338		9.450221	0.068749	2.238828	-0.011727	-0.020119	0.003509	0.358158	-0.550082	-0.281978	-0.699730	0.142049	-76.361321	-125.900312
11339		9.461934	0.063909	2.257971	-0.010762	-0.023724	-0.001887	0.358075	-0.550170	-0.282044	-0.699676	0.163951	-76.377184	-125.924688
11340		9.451228	0.068324	2.234586	-0.014660	-0.022549	-0.002076	0.358004	-0.550256	-0.282107	-0.699619	0.182184	-76.392591	-125.944590
11341		9.459675	0.047112	2.223503	-0.012039	-0.027251	-0.007919	0.357891	-0.550351	-0.282192	-0.699568	0.217783	-76.410459	-125.983807
11342		9.435574	0.074959	2.267872	-0.011998	-0.029927	-0.007768	0.357786	-0.550452	-0.282289	-0.699503	0.252984	-76.430004	-126.020994
11343		9.484529	0.076021	2.239409	-0.010463	-0.032508	-0.012072	0.357656	-0.550556	-0.282400	-0.699443	0.299626	-76.450859	-126.070633
11344		9.524546	0.061835	2.240481	-0.013786	-0.030310	-0.011168	0.357542	-0.550657	-0.282503	-0.699380	0.339795	-76.470764	-126.113021
11345		9.476958	0.062466	2.263237	-0.010684	-0.028631	-0.016216	0.357403	-0.550742	-0.282617	-0.699338	0.396409	-76.489365	-126.173038
11346		9.509054	0.070003	2.273217	-0.017812	-0.030616	-0.015204	0.357248	-0.550852	-0.282707	-0.699295	0.444708	-76.509474	-126.228528
11347		9.487242	0.080178	2.227741	-0.018932	-0.035333	-0.017223	0.357072	-0.550974	-0.282808	-0.699247	0.499457	-76.531884	-126.291478
11348		9.499220	0.076704	2.245909	-0.023381	-0.028341	-0.014925	0.356903	-0.551088	-0.282870	-0.699219	0.543541	-76.550771	-126.346474
11349		9.476341	0.050028	2.221500	-0.023468	-0.032497	-0.018628	0.356715	-0.551206	-0.282954	-0.699188	0.599344	-76.571523	-126.413169
11350		9.500604	0.079015	2.239969	-0.023477	-0.032494	-0.018619	0.356549	-0.551317	-0.283052	-0.699145	0.653678	-76.592432	-126.474894
11351		9.497934	0.063514	2.206837	-0.020169	-0.034684	-0.019513	0.356364	-0.551436	-0.283153	-0.699105	0.713947	-76.614401	-126.544224
11352		9.525828	0.017877	2.206962	-0.011929	-0.037485	-0.021911	0.356198	-0.551544	-0.283302	-0.699044	0.784339	-76.638137	-126.617593
11353		9.522101	0.058053	2.242459	-0.003241	-0.031234	-0.023670	0.356049	-0.551614	-0.283468	-0.698997	0.864682	-76.658056	-126.697574
11354		9.542000	0.034028	2.251912	-0.003569	-0.029294	-0.017037	0.355943	-0.551685	-0.283620	-0.698933	0.926504	-76.677235	-126.756395
11355		9.562790	0.046776	2.240619	0.001807	-0.030361	-0.021308	0.355817	-0.551747	-0.283795	-0.698878	1.004426	-76.696631	-126.830902
11356		9.583506	0.059627	2.229590	0.001845	-0.023527	-0.017746	0.355727	-0.551790	-0.283954	-0.698825	1.070712	-76.712583	-126.891858
11357		9.615453	0.067650	2.240160	0.003588	-0.020466	-0.014490	0.355644	-0.551824	-0.284099	-0.698782	1.133023	-76.726344	-126.949267
11358		9.615761	0.069048	2.238793	0.009055	-0.007870	-0.011655	0.355609	-0.551806	-0.284237	-0.698758	1.191332	-76.732970	-126.998596
11359		9.615891	0.070476	2.238190	0.007801	-0.004557	-0.014121	0.355562	-0.551776	-0.284367	-0.698752	1.254528	-76.737595	-127.054430
11360		9.616747	0.108886	2.217295	0.009325	0.002378	-0.015022	0.355538	-0.551717	-0.284500	-0.698757	1.318847	-76.738486	-127.108854
11361		9.596512	0.099367	2.226231	0.007755	0.007628	-0.010866	0.355519	-0.551650	-0.284600	-0.698778	1.373461	-76.736148	-127.155896
11362		9.545557	0.120308	2.202097	0.016939	0.010747	-0.015259	0.355526	-0.551548	-0.284744	-0.698797	1.442568	-76.732187	-127.210880
11363		9.549753	0.083853	2.164568	0.022534	0.015317	-0.011974	0.355555	-0.551426	-0.284885	-0.698820	1.507807	-76.725404	-127.260140
11364		9.513475	0.117207	2.191934	0.027054	0.012495	-0.010555	0.355620	-0.551300	-0.285059	-0.698816	1.571665	-76.720293	-127.301765
11365		9.493068	0.107803	2.201602	0.027631	0.013518	-0.009467	0.355670	-0.551179	-0.285214	-0.698823	1.633755	-76.714556	-127.344791
11366		9.489330	0.092148	2.173033	0.018355	0.015751	-0.005376	0.355739	-0.551068	-0.285337	-0.698826	1.676973	-76.708006	-127.369988
11367		9.461826	0.140021	2.170678	0.010250	0.010516	-0.002521	0.355761	-0.550998	-0.285417	-0.698837	1.712407	-76.704090	-127.395857
11368		9.438085	0.112642	2.150179	0.014725	0.010371	-0.001252	0.355801	-0.550920	-0.285513	-0.698838	1.748567	-76.700251	-127.419284
11369		9.462239	0.177608	2.151627	0.009264	0.007279	-0.000684	0.355822	-0.550866	-0.285591	-0.698839	1.779195	-76.698214	-127.440796
11370		9.470065	0.156888	2.143308	0.021848	0.002859	-0.005664	0.355878	-0.550791	-0.285750	-0.698805	1.827674	-76.698767	-127.469560
11371		9.453218	0.163842	2.182183	0.021753	0.008213	-0.005964	0.355916	-0.550704	-0.285883	-0.698799	1.878154	-76.696090	-127.504119
11372		9.520519	0.139409	2.169451	0.021975	0.004343	-0.001807	0.355975	-0.550633	-0.286021	-0.698768	1.917927	-76.695920	-127.525825
11373		9.525009	0.102139	2.131008	0.028423	0.001162	-0.007601	0.356016	-0.550556	-0.286195	-0.698737	1.976754	-76.697235	-127.565032
11374		9.514545	0.144685	2.088725	0.036880	-0.005498	-0.005834	0.356080	-0.550492	-0.286407	-0.698668	2.035298	-76.702725	-127.598612
11375		9.472431	0.142958	2.194536	0.032091	-0.005645	-0.014952	0.356095	-0.550422	-0.286626	-0.698625	2.114675	-76.707766	-127.656774
11376		9.489775	0.137550	2.296045	0.006539	-0.001261	-0.016563	0.356057	-0.550374	-0.286765	-0.698625	2.182309	-76.710339	-127.715240
11377		9.574721	0.143918	2.223645	-0.015125	0.004195	-0.003521	0.355997	-0.550370	-0.286771	-0.698657	2.206077	-76.709969	-127.744058
11378		9.510685	0.223822	2.106663	-0.009951	0.016075	0.006075	0.356010	-0.550328	-0.286753	-0.698691	2.207543	-76.703248	-127.745592
11379		9.533110	0.214479	2.150123	-0.001172	0.007469	0.001226	0.356009	-0.550294	-0.286788	-0.698703	2.227482	-76.701106	-127.762261
11380		9.476386	0.106711	2.158448	-0.000273	0.006545	-0.004307	0.355983	-0.550256	-0.286843	-0.698724	2.262928	-76.699446	-127.794930
11381		9.470018	0.071586	2.239482	-0.009492	0.006099	-0.000082	0.355953	-0.550240	-0.286855	-0.698747	2.281385	-76.698055	-127.814976
11382		9.456050	0.095462	2.167917	-0.007030	0.002159	0.004709	0.355950	-0.550240	-0.286875	-0.698740	2.288408	-76.699358	-127.820440
11383		9.464871	0.110528	2.138126	0.006806	-0.005567	0.002212	0.355956	-0.550239	-0.286959	-0.698704	2.311782	-76.704696	-127.835943
11384		9.540977	0.062832	2.255624	0.019386	-0.009984	-0.002754	0.355976	-0.550222	-0.287113	-0.698644	2.355687	-76.712467	-127.864334
11385		9.562111	0.111440	2.225357	0.012495	-0.008578	-0.008663	0.355955	-0.550206	-0.287252	-0.698610	2.409044	-76.719264	-127.907292
11386		9.556926	0.113955	2.283961	0.009856	-0.010721	-0.006379	0.355941	-0.550205	-0.287384	-0.698564	2.454477	-76.727619	-127.942351
11387		9.563247	0.149925	2.202970	0.006400	-0.000505	-0.005943	0.355924	-0.550175	-0.287480	-0.698556	2.496982	-76.729846	-127.977746
11388		9.503707	0.154471	2.207602	0.011405	0.003053	-0.003741	0.355944	-0.550125	-0.287588	-0.698541	2.536241	-76.730259	-128.005269
11389		9.523739	0.166031	2.199396	0.011404	0.003053	-0.003740	0.355954	-0.550077	-0.287689	-0.698532	2.575898	-76.730494	-128.034791
11390		9.522848	0.129841	2.220625	0.016456	0.003936	-0.001384	0.355992	-0.550022	-0.287803	-0.698509	2.611600	-76.730606	-128.056564
11391		9.539456	0.124209	2.182758	0.015958	0.007075	0.001230	0.356038	-0.549959	-0.287898	-0.698496	2.641355	-76.728662	-128.073233
11392		9.518364	0.076449	2.212926	0.011167	0.009165	0.006572	0.356086	-0.549909	-0.287956	-0.698487	2.655587	-76.725891	-128.077541
11393		9.518982	0.113025	2.192855	0.014880	0.009192	0.002762	0.356137	-0.549843	-0.288040	-0.698479	2.680757	-76.722774	-128.090134
11394		9.506606	0.080561	2.193613	0.008881	0.011913	0.005783	0.356198	-0.549780	-0.288098	-0.698473	2.693771	-76.718444	-128.092014
11395		9.498416	0.101227	2.203352	0.000294	0.009814	0.011240	0.356239	-0.549750	-0.288107	-0.698472	2.689948	-76.715199	-128.083402
11396		9.506961	0.115480	2.174809	0.000824	0.013514	0.012170	0.356316	-0.549696	-0.288128	-0.698466	2.684018	-76.709758	-128.068110
11397		9.526818	0.125005	2.167543	-0.002265	0.011835	0.017220	0.356374	-0.549673	-0.288108	-0.698464	2.664022	-76.705514	-128.044385
11398		9.506451	0.112348	2.177200	-0.006159	0.013001	0.017030	0.356425	-0.549659	-0.288068	-0.698465	2.637932	-76.701365	-128.017020
11399		9.498228	0.131712	2.187206	-0.011533	0.014071	0.021289	0.356475	-0.549650	-0.288001	-0.698474	2.602557	-76.695944	-127.982949
11400		9.486644	0.133993	2.167350	-0.008850	0.013537	0.019164	0.356518	-0.549637	-0.287947	-0.698485	2.575000	-76.690871	-127.956073
11401		9.505657	0.105730	2.180996	-0.018476	0.010884	0.026306	0.356562	-0.549658	-0.287847	-0.698487	2.523908	-76.687391	-127.909937
11402		9.533461	0.092585	2.165122	-0.008151	0.016048	0.024108	0.356643	-0.549640	-0.287784	-0.698486	2.481773	-76.681265	-127.865787
11403		9.519767	0.112818	2.234721	-0.022379	0.012056	0.026122	0.356677	-0.549664	-0.287668	-0.698497	2.428825	-76.677093	-127.820040
11404		9.515979	0.092821	2.206792	-0.029827	0.028802	0.026074	0.356736	-0.549635	-0.287514	-0.698553	2.370002	-76.663341	-127.769101
11405		9.559073	0.127905	2.222389	-0.032139	0.024283	0.036377	0.356797	-0.549648	-0.287315	-0.698594	2.285622	-76.652384	-127.696792
11406		9.528312	0.062123	2.143622	-0.026116	0.028400	0.036919	0.356883	-0.549638	-0.287128	-0.698634	2.202712	-76.639302	-127.622261
11407		9.505258	0.067219	2.103637	-0.009472	0.021604	0.036161	0.357002	-0.549620	-0.287013	-0.698635	2.132340	-76.629828	-127.550995
11408		9.523250	-0.000461	2.278970	-0.012201	0.015303	0.034741	0.357113	-0.549620	-0.286917	-0.698617	2.065310	-76.623881	-127.482199
11409		9.464349	0.036534	2.264157	-0.023770	0.020308	0.038034	0.357197	-0.549635	-0.286749	-0.698632	1.982528	-76.615145	-127.406592
11410		9.472814	0.047681	2.236545	-0.039890	0.021304	0.036344	0.357239	-0.549673	-0.286532	-0.698670	1.893496	-76.606083	-127.333115
11411		9.512782	0.065003	2.221522	-0.043087	0.015471	0.037700	0.357262	-0.549738	-0.286307	-0.698699	1.801031	-76.600057	-127.258926
11412		9.504516	0.081707	2.232043	-0.039179	0.021142	0.041473	0.357317	-0.549785	-0.286074	-0.698729	1.700588	-76.591134	-127.174178
11413		9.515323	0.072610	2.255224	-0.033802	0.020067	0.037219	0.357370	-0.549817	-0.285874	-0.698759	1.614453	-76.582412	-127.101022
11414		9.527196	0.100549	2.257673	-0.029386	0.022594	0.038365	0.357442	-0.549835	-0.285683	-0.698786	1.528470	-76.572379	-127.025363
11415		9.512113	0.084198	2.208816	-0.023468	0.025215	0.035050	0.357523	-0.549827	-0.285515	-0.698819	1.453355	-76.560626	-126.957443
11416		9.501479	0.028182	2.261453	-0.017922	0.022940	0.034797	0.357617	-0.549817	-0.285375	-0.698836	1.382861	-76.550316	-126.890579
11417		9.507645	-0.033583	2.275746	-0.019748	0.025239	0.031248	0.357695	-0.549798	-0.285231	-0.698870	1.319212	-76.538460	-126.832250
11418		9.516088	-0.021910	2.248556	-0.015592	0.024349	0.039323	0.357814	-0.549786	-0.285084	-0.698879	1.238473	-76.527484	-126.753492
11419		9.504434	-0.021141	2.229247	-0.019016	0.015552	0.032927	0.357886	-0.549802	-0.284955	-0.698882	1.171929	-76.521163	-126.691752
11420		9.475973	-0.014268	2.247978	-0.019532	0.018696	0.035570	0.357979	-0.549803	-0.284823	-0.698887	1.101075	-76.512857	-126.623964
11421		9.503646	-0.028644	2.232518	-0.021735	0.016102	0.035081	0.358052	-0.549825	-0.284678	-0.698892	1.027938	-76.506208	-126.557042
11422		9.486373	-0.026481	2.272415	-0.013414	0.017436	0.036416	0.358151	-0.549831	-0.284554	-0.698887	0.956236	-76.499030	-126.487219
11423		9.463664	-0.021052	2.231441	-0.010526	0.013017	0.038438	0.358262	-0.549848	-0.284444	-0.698861	0.881768	-76.494140	-126.412318
11424		9.494826	-0.018620	2.245422	-0.010024	0.009878	0.035807	0.358362	-0.549875	-0.284348	-0.698828	0.812606	-76.491390	-126.342624
11425		9.485499	-0.037816	2.275897	-0.012736	0.010427	0.037953	0.358462	-0.549904	-0.284237	-0.698799	0.738200	-76.487937	-126.269087
11426		9.475367	-0.000170	2.235031	-0.013360	0.012090	0.036728	0.358571	-0.549924	-0.284132	-0.698770	0.664895	-76.483786	-126.195059
11427		9.473863	-0.040723	2.256533	-0.009964	0.004526	0.036107	0.358664	-0.549966	-0.284046	-0.698724	0.596700	-76.483659	-126.126275
11428		9.475066	-0.007348	2.236296	-0.005642	0.005556	0.033379	0.358766	-0.549992	-0.283986	-0.698676	0.537363	-76.483073	-126.063077
11429		9.484731	-0.052096	2.278817	-0.004026	0.007133	0.032791	0.358867	-0.550009	-0.283925	-0.698635	0.480428	-76.481401	-126.002373
11430		9.501511	-0.061059	2.240938	-0.000199	0.001782	0.029245	0.358961	-0.550035	-0.283899	-0.698577	0.433804	-76.483050	-125.949582
11431		9.476802	-0.036409	2.288154	-0.000778	0.000765	0.028154	0.359045	-0.550062	-0.283874	-0.698523	0.389895	-76.484983	-125.900362
11432		9.501399	-0.066483	2.241258	-0.000820	0.003446	0.028018	0.359155	-0.550069	-0.283863	-0.698465	0.347246	-76.485226	-125.848696
11433		9.485859	-0.026419	2.258911	-0.010740	-0.002122	0.027425	0.359205	-0.550124	-0.283810	-0.698418	0.299382	-76.488792	-125.801278
11434		9.493612	-0.050815	2.250053	-0.009017	0.000936	0.030715	0.359281	-0.550171	-0.283749	-0.698366	0.242436	-76.491026	-125.743039
11435		9.517273	-0.026453	2.271866	-0.013494	0.001112	0.029438	0.359336	-0.550222	-0.283675	-0.698328	0.188118	-76.492723	-125.690608
11436		9.493528	-0.056711	2.250267	-0.006456	0.001584	0.024561	0.359402	-0.550246	-0.283649	-0.698286	0.151444	-76.493986	-125.650404
11437		9.506067	-0.027083	2.250856	-0.008083	0.000012	0.025158	0.359455	-0.550284	-0.283607	-0.698245	0.110422	-76.496290	-125.608459
11438		9.517194	-0.034261	2.272094	-0.009274	0.000656	0.022830	0.359501	-0.550317	-0.283573	-0.698210	0.075808	-76.498188	-125.572901
11439		9.494880	-0.027047	2.229789	-0.007177	0.001765	0.019453	0.359539	-0.550340	-0.283547	-0.698183	0.048891	-76.499472	-125.544928
11440		9.504522	-0.070701	2.271826	-0.012701	0.001389	0.019864	0.359575	-0.550368	-0.283514	-0.698155	0.018646	-76.500956	-125.514539
11441		9.510168	-0.073913	2.212694	-0.009014	0.006750	0.015754	0.359602	-0.550372	-0.283483	-0.698151	-0.000503	-76.499378	-125.495636
11442		9.485407	-0.048420	2.260448	-0.015013	0.006839	0.018951	0.359624	-0.550391	-0.283424	-0.698148	-0.030580	-76.497926	-125.468858
11443		9.525941	-0.028778	2.244260	-0.010709	0.001017	0.012606	0.359627	-0.550414	-0.283406	-0.698136	-0.043190	-76.499630	-125.457679
11444		9.494412	-0.036285	2.231649	-0.011830	0.005823	0.014022	0.359654	-0.550418	-0.283383	-0.698128	-0.060027	-76.498670	-125.440480
11445		9.525736	-0.031850	2.245089	-0.014644	0.004895	0.012286	0.359651	-0.550434	-0.283345	-0.698133	-0.074122	-76.498151	-125.430091
11446		9.486473	-0.017895	2.241440	-0.016883	0.004986	0.011648	0.359655	-0.550446	-0.283315	-0.698133	-0.088085	-76.497698	-125.418479
11447		9.506692	-0.008618	2.233599	-0.019697	0.004060	0.009912	0.359629	-0.550470	-0.283267	-0.698147	-0.099413	-76.497658	-125.413914
11448		9.486258	-0.020658	2.242326	-0.020309	0.005723	0.008681	0.359602	-0.550484	-0.283225	-0.698167	-0.106616	-76.496657	-125.413045
11449		9.525256	-0.037138	2.247043	-0.010445	0.007113	0.005531	0.359590	-0.550475	-0.283216	-0.698184	-0.102175	-76.494872	-125.419244
11450		9.517406	-0.016348	2.256527	-0.007732	0.006559	0.003384	0.359595	-0.550457	-0.283235	-0.698188	-0.093362	-76.493753	-125.425791
11451		9.528385	-0.021698	2.278327	-0.006548	0.005914	0.005715	0.359593	-0.550445	-0.283242	-0.698196	-0.087136	-76.492655	-125.431530
11452		9.539248	-0.026982	2.300591	-0.008446	0.016262	0.001744	0.359592	-0.550392	-0.283240	-0.698239	-0.072192	-76.485742	-125.446278
11453		9.557334	0.003374	2.243101	-0.016654	0.013766	0.004440	0.359569	-0.550369	-0.283201	-0.698285	-0.068700	-76.480146	-125.455160
11454		9.528967	0.013293	2.261636	-0.018928	0.016538	0.003667	0.359539	-0.550342	-0.283151	-0.698342	-0.065331	-76.473230	-125.465405
11455		9.539701	0.007741	2.284422	-0.016693	0.016447	0.004310	0.359519	-0.550309	-0.283107	-0.698395	-0.061557	-76.466097	-125.474601
11456		9.517151	0.016483	2.243435	-0.014423	0.013676	0.005087	0.359517	-0.550276	-0.283087	-0.698431	-0.056924	-76.460420	-125.480996
11457		9.496476	0.005201	2.253100	-0.012929	0.016450	0.000476	0.359493	-0.550231	-0.283067	-0.698487	-0.041888	-76.453287	-125.499556
11458		9.499500	0.021354	2.284745	-0.011172	0.016820	0.003907	0.359498	-0.550184	-0.283051	-0.698527	-0.034765	-76.446148	-125.507261
11459		9.476961	0.030285	2.243786	-0.011138	0.014141	0.004042	0.359489	-0.550149	-0.283032	-0.698567	-0.027208	-76.440335	-125.517073
11460		9.508070	0.035671	2.258156	-0.010086	0.014696	0.002353	0.359478	-0.550105	-0.283025	-0.698611	-0.013160	-76.434118	-125.532381
11461		9.507770	0.035209	2.259424	-0.007814	0.011923	0.003127	0.359472	-0.550071	-0.283023	-0.698642	-0.001546	-76.429575	-125.544408
11462		9.468415	0.050255	2.256225	-0.006116	0.008134	0.002802	0.359482	-0.550039	-0.283050	-0.698651	0.011661	-76.427251	-125.554150
11463		9.496271	0.039252	2.239967	-0.007300	0.008781	0.000472	0.359463	-0.550011	-0.283063	-0.698677	0.029859	-76.424506	-125.572647
11464		9.479125	0.045126	2.279010	-0.005157	0.007211	-0.002776	0.359449	-0.549978	-0.283104	-0.698693	0.055297	-76.422948	-125.595578
11465		9.484882	0.044139	2.220053	0.001592	0.004253	-0.000722	0.359445	-0.549948	-0.283160	-0.698697	0.081421	-76.422794	-125.616987
11466		9.467796	0.050208	2.258824	-0.003494	0.006102	-0.003235	0.359422	-0.549919	-0.283203	-0.698714	0.109791	-76.421856	-125.643408
11467		9.475369	0.028931	2.250517	-0.002310	0.005454	-0.000904	0.359407	-0.549891	-0.283244	-0.698727	0.134101	-76.421009	-125.665251
11468		9.494121	0.002733	2.263007	0.004512	-0.002866	0.001413	0.359423	-0.549879	-0.283329	-0.698694	0.156888	-76.425029	-125.679093
11469		9.482925	0.064886	2.170020	0.017307	-0.008596	0.000402	0.359447	-0.549867	-0.283460	-0.698638	0.189449	-76.432230	-125.697859
11470		9.434747	0.065580	2.194324	0.014880	-0.011460	-0.008015	0.359441	-0.549855	-0.283618	-0.698586	0.239993	-76.441247	-125.734977
11471		9.458949	0.036628	2.286479	-0.000117	-0.008319	-0.007512	0.359390	-0.549863	-0.283709	-0.698569	0.281441	-76.448261	-125.773154
11472		9.561083	0.033164	2.316042	-0.019365	-0.004718	-0.000382	0.359312	-0.549906	-0.283704	-0.698577	0.294035	-76.453597	-125.793668
11473		9.582109	0.045668	2.167558	-0.017010	0.003509	0.007773	0.359285	-0.549925	-0.283673	-0.698589	0.289354	-76.453875	-125.794350
11474		9.510546	0.108506	2.219737	-0.014069	0.003231	0.013535	0.359289	-0.549949	-0.283638	-0.698582	0.271012	-76.454705	-125.778850
11475		9.488667	0.059706	2.248441	-0.006419	-0.004809	0.006252	0.359274	-0.549975	-0.283663	-0.698559	0.276111	-76.459744	-125.783350
11476		9.505953	-0.004186	2.281086	-0.010358	-0.000926	0.005940	0.359257	-0.549994	-0.283672	-0.698549	0.278989	-76.462825	-125.787146
11477		9.480392	-0.012221	2.208597	-0.007451	0.001476	0.011569	0.359267	-0.550007	-0.283668	-0.698536	0.270772	-76.464278	-125.778558
11478		9.474574	-0.012195	2.267853	-0.001335	-0.006659	0.008764	0.359294	-0.550030	-0.283721	-0.698482	0.270257	-76.470768	-125.771117
11479		9.534229	-0.017419	2.263020	0.012960	-0.009617	0.003135	0.359314	-0.550034	-0.283831	-0.698424	0.293946	-76.478553	-125.783316
11480		9.517541	-0.011563	2.300204	0.004650	-0.013590	0.001939	0.359298	-0.550067	-0.283920	-0.698370	0.315261	-76.488870	-125.798537
11481		9.519426	0.025415	2.278328	0.005129	-0.014051	-0.000850	0.359277	-0.550095	-0.284021	-0.698318	0.344074	-76.499180	-125.820620
11482		9.472863	0.062412	2.282014	-0.002135	-0.007949	-0.000243	0.359268	-0.550111	-0.284098	-0.698279	0.364640	-76.506385	-125.835437
11483		9.489997	0.056292	2.242906	0.000233	-0.009244	0.004418	0.359258	-0.550138	-0.284159	-0.698237	0.378049	-76.513958	-125.844560
11484		9.521641	0.061870	2.255040	0.003525	-0.008782	0.003368	0.359260	-0.550153	-0.284240	-0.698192	0.396388	-76.521300	-125.855769
11485		9.510752	0.066551	2.232955	0.010718	-0.009523	0.002497	0.359272	-0.550159	-0.284344	-0.698138	0.420434	-76.529022	-125.869652
11486		9.500157	0.014226	2.282068	0.014009	-0.009061	0.001447	0.359292	-0.550161	-0.284460	-0.698079	0.446477	-76.536971	-125.883651
11487		9.547155	-0.022541	2.276524	0.007869	-0.007765	0.000628	0.359292	-0.550164	-0.284556	-0.698038	0.473377	-76.543675	-125.902146
11488		9.509753	0.029946	2.251138	0.008444	-0.006749	0.001727	0.359309	-0.550159	-0.284659	-0.697992	0.498815	-76.549862	-125.917006
11489		9.511821	0.009413	2.300945	0.000840	-0.010906	0.005655	0.359303	-0.550192	-0.284722	-0.697943	0.509745	-76.558388	-125.923221
11490		9.517838	0.007715	2.240565	0.005857	-0.007395	0.007900	0.359339	-0.550203	-0.284801	-0.697883	0.516809	-76.565164	-125.920077
11491		9.508709	-0.008383	2.269559	0.005790	-0.002034	0.007633	0.359366	-0.550199	-0.284860	-0.697848	0.525653	-76.568616	-125.921231
11492		9.514639	-0.010041	2.209501	0.006942	-0.009521	0.006344	0.359373	-0.550220	-0.284937	-0.697797	0.540190	-76.576384	-125.928580
11493		9.497903	-0.004817	2.247080	0.001477	-0.005729	0.010512	0.359393	-0.550241	-0.284980	-0.697753	0.539742	-76.581969	-125.922721
11494		9.458922	0.009566	2.242387	-0.005108	-0.006650	0.012617	0.359423	-0.550269	-0.285015	-0.697700	0.531349	-76.588015	-125.908699
11495		9.479427	0.018992	2.233468	-0.005684	-0.007667	0.011519	0.359424	-0.550311	-0.285033	-0.697659	0.524409	-76.594715	-125.900384
11496		9.496520	0.011684	2.194320	-0.001656	-0.010070	0.015725	0.359462	-0.550356	-0.285069	-0.697590	0.508897	-76.602999	-125.878642
11497		9.474489	0.019978	2.151083	0.004319	-0.007486	0.012387	0.359493	-0.550381	-0.285119	-0.697533	0.505577	-76.609600	-125.868157
11498		9.508092	0.004535	2.213554	-0.000639	-0.016355	0.010415	0.359511	-0.550436	-0.285188	-0.697452	0.503596	-76.621411	-125.858921
11499		9.505950	0.020813	2.302466	-0.020644	0.002328	0.015660	0.359500	-0.550476	-0.285125	-0.697452	0.477867	-76.622404	-125.840103
11500		9.522871	0.012666	2.263990	-0.022087	-0.005801	0.020551	0.359493	-0.550558	-0.285057	-0.697419	0.437339	-76.628586	-125.806818
11501		9.509941	0.035291	2.191899	-0.017100	0.000387	0.022663	0.359513	-0.550609	-0.284991	-0.697396	0.396775	-76.630715	-125.770665
11502		9.501427	-0.037121	2.152157	-0.002686	-0.003786	0.021048	0.359582	-0.550637	-0.285004	-0.697333	0.368482	-76.635308	-125.735133
11503		9.518022	-0.047564	2.253487	0.006197	-0.008324	0.019847	0.359644	-0.550672	-0.285042	-0.697258	0.348156	-76.642408	-125.706062
11504		9.540457	-0.058950	2.294975	-0.002727	-0.010622	0.017429	0.359669	-0.550729	-0.285060	-0.697192	0.328181	-76.651096	-125.682649
11505		9.451277	-0.024658	2.265088	-0.013431	-0.001089	0.014933	0.359670	-0.550767	-0.285030	-0.697174	0.308327	-76.654032	-125.665623
11506		9.520042	-0.015961	2.231138	-0.020568	-0.005698	0.016082	0.359662	-0.550834	-0.284988	-0.697142	0.279577	-76.659974	-125.641791
11507		9.586609	0.009987	2.286605	-0.021531	-0.004771	0.021673	0.359659	-0.550909	-0.284918	-0.697113	0.238808	-76.665033	-125.608041
11508		9.547559	0.023235	2.282408	-0.019479	0.001695	0.018020	0.359667	-0.550951	-0.284860	-0.697099	0.206974	-76.666652	-125.580862
11509		9.536418	0.025825	2.261354	-0.018300	0.001047	0.020356	0.359677	-0.550998	-0.284794	-0.697084	0.171154	-76.668365	-125.550295
11510		9.527079	0.008067	2.291167	-0.017303	0.006961	0.018398	0.359709	-0.551016	-0.284740	-0.697076	0.139004	-76.666990	-125.520110
11511		9.519928	-0.027213	2.231515	-0.015039	0.004185	0.019172	0.359728	-0.551044	-0.284683	-0.697067	0.107892	-76.666895	-125.492461
11512		9.510577	-0.044838	2.261287	-0.017857	0.003268	0.017437	0.359744	-0.551076	-0.284632	-0.697054	0.078362	-76.667583	-125.466208
11513		9.478978	-0.052557	2.248795	-0.021308	0.006698	0.014337	0.359732	-0.551100	-0.284562	-0.697070	0.055339	-76.666039	-125.450564
11514		9.513834	-0.032148	2.292401	-0.020707	0.005033	0.015573	0.359730	-0.551129	-0.284499	-0.697073	0.029183	-76.665650	-125.430347
11515		9.491501	-0.024690	2.250522	-0.024972	0.005504	0.022227	0.359734	-0.551175	-0.284397	-0.697076	-0.015003	-76.664787	-125.395110
11516		9.511786	-0.016588	2.242674	-0.026707	0.002463	0.018930	0.359725	-0.551227	-0.284311	-0.697075	-0.051833	-76.665736	-125.367058
11517		9.493066	0.007297	2.230579	-0.030588	0.000997	0.018893	0.359696	-0.551294	-0.284207	-0.697080	-0.091189	-76.667447	-125.340091
11518		9.500596	-0.016691	2.221835	-0.029440	0.003027	0.021102	0.359688	-0.551358	-0.284100	-0.697077	-0.137822	-76.668490	-125.304073
11519		9.492981	0.002150	2.230955	-0.026120	0.000802	0.020178	0.359675	-0.551419	-0.284008	-0.697073	-0.177742	-76.670302	-125.273896
11520		9.480167	-0.032392	2.230172	-0.030580	-0.001676	0.019040	0.359648	-0.551496	-0.283912	-0.697065	-0.218402	-76.673808	-125.244731
11521		9.524450	0.003177	2.244001	-0.021309	0.004029	0.014502	0.359633	-0.551529	-0.283846	-0.697073	-0.241827	-76.673774	-125.228674
11522		9.504069	-0.009282	2.252155	-0.021813	-0.005023	0.013791	0.359624	-0.551587	-0.283814	-0.697045	-0.264856	-76.679026	-125.209734
11523		9.511673	-0.032478	2.242976	-0.026349	0.000541	0.012265	0.359582	-0.551638	-0.283744	-0.697055	-0.285804	-76.680994	-125.199190
11524		9.543181	-0.028433	2.255848	-0.025843	-0.002597	0.009598	0.359551	-0.551688	-0.283705	-0.697047	-0.300743	-76.684883	-125.190873
11525		9.515279	-0.019194	2.272811	-0.025269	-0.001584	0.010704	0.359504	-0.551743	-0.283647	-0.697052	-0.317329	-76.688072	-125.184173
11526		9.511761	-0.037129	2.242533	-0.026453	-0.000927	0.008375	0.359446	-0.551791	-0.283593	-0.697065	-0.326479	-76.690771	-125.185463
11527		9.504255	-0.017245	2.251325	-0.031400	-0.002942	0.010038	0.359377	-0.551861	-0.283518	-0.697076	-0.344993	-76.694739	-125.180393
11528		9.480382	-0.046135	2.229015	-0.035772	-0.003944	0.012805	0.359316	-0.551941	-0.283431	-0.697080	-0.372134	-76.699325	-125.167040
11529		9.478684	-0.027183	2.178072	-0.024776	-0.004717	0.008046	0.359257	-0.552002	-0.283387	-0.697080	-0.382069	-76.704318	-125.166886
11530		9.461933	-0.022833	2.216009	-0.031993	-0.003948	0.008951	0.359197	-0.552068	-0.283328	-0.697082	-0.398072	-76.708888	-125.162100
11531		9.450953	-0.019387	2.194338	-0.031974	-0.006626	0.009082	0.359119	-0.552150	-0.283259	-0.697086	-0.414687	-76.714970	-125.159318
11532		9.501269	-0.041799	2.218624	-0.033597	-0.010869	0.009809	0.359049	-0.552246	-0.283202	-0.697069	-0.435045	-76.723668	-125.151149
11533		9.514371	-0.011362	2.218453	-0.030296	-0.010418	0.008748	0.358968	-0.552338	-0.283147	-0.697060	-0.449979	-76.731923	-125.149106
11534		9.525690	-0.017717	2.238661	-0.025929	-0.009412	0.005987	0.358900	-0.552410	-0.283122	-0.697048	-0.454807	-76.739626	-125.153277
11535		9.525881	-0.018816	2.237839	-0.026535	-0.007741	0.004763	0.358820	-0.552480	-0.283087	-0.697048	-0.457852	-76.746366	-125.161234
11536		9.568636	-0.019408	2.271321	-0.025380	-0.005720	0.006972	0.358750	-0.552549	-0.283042	-0.697047	-0.466891	-76.752310	-125.163083
11537		9.544758	-0.047476	2.248847	-0.027166	-0.003388	0.003418	0.358670	-0.552603	-0.283000	-0.697063	-0.466937	-76.756563	-125.174493
11538		9.565184	-0.037719	2.240549	-0.027794	0.000963	0.002070	0.358594	-0.552639	-0.282958	-0.697091	-0.462835	-76.758385	-125.189514
11539		9.533676	-0.044401	2.227566	-0.028745	-0.000806	0.007803	0.358528	-0.552693	-0.282894	-0.697108	-0.474408	-76.761138	-125.190010
11540		9.557591	-0.018677	2.249894	-0.028331	0.006782	0.004635	0.358480	-0.552707	-0.282842	-0.697142	-0.476764	-76.759519	-125.196717
11541		9.514864	-0.020259	2.216274	-0.026067	0.003996	0.005391	0.358420	-0.552736	-0.282786	-0.697173	-0.480832	-76.759532	-125.203346
11542		9.525858	-0.026389	2.237862	-0.022179	0.005455	0.005427	0.358371	-0.552754	-0.282741	-0.697202	-0.482013	-76.758818	-125.210726
11543		9.503545	-0.017103	2.196059	-0.017203	0.004789	0.003884	0.358332	-0.552762	-0.282718	-0.697226	-0.477318	-76.758384	-125.221140
11544		9.494114	-0.033535	2.225877	-0.015560	0.006354	0.003289	0.358309	-0.552757	-0.282709	-0.697245	-0.470603	-76.757210	-125.230725
11545		9.478995	0.008321	2.244414	-0.021561	0.001105	0.006780	0.358262	-0.552791	-0.282669	-0.697258	-0.475530	-76.758873	-125.233819
11546		9.523720	-0.008933	2.188900	-0.020012	0.001209	0.002278	0.358221	-0.552810	-0.282659	-0.697268	-0.469871	-76.760724	-125.244308
11547		9.506867	-0.004428	2.227387	-0.023118	0.001003	0.011289	0.358185	-0.552853	-0.282601	-0.697276	-0.486673	-76.762423	-125.236118
11548		9.527282	0.005080	2.219220	-0.017746	-0.001577	0.003031	0.358141	-0.552882	-0.282596	-0.697278	-0.481262	-76.765903	-125.246264
11549		9.503317	-0.022559	2.196997	-0.012674	-0.000784	0.005393	0.358111	-0.552904	-0.282595	-0.697276	-0.477756	-76.768655	-125.252790
11550		9.506953	-0.006970	2.227016	-0.009919	-0.004024	0.003337	0.358084	-0.552927	-0.282621	-0.697261	-0.467699	-76.773367	-125.263228
11551		9.484833	0.002779	2.184440	-0.010521	-0.002352	0.002113	0.358047	-0.552945	-0.282638	-0.697259	-0.454988	-76.777032	-125.277942
11552		9.520012	0.024021	2.227317	-0.011566	-0.005588	0.003935	0.357998	-0.552984	-0.282647	-0.697249	-0.446682	-76.782693	-125.290275
11553		9.494312	-0.040724	2.224912	-0.010407	-0.003572	0.006144	0.357973	-0.553013	-0.282657	-0.697236	-0.443746	-76.787038	-125.294879
11554		9.516716	0.006539	2.195805	-0.005454	-0.013741	0.001045	0.357921	-0.553066	-0.282709	-0.697199	-0.426211	-76.797498	-125.312923
11555		9.528032	0.000745	2.216002	-0.008625	-0.005909	0.009698	0.357911	-0.553104	-0.282719	-0.697169	-0.430969	-76.803167	-125.308576
11556		9.485621	-0.000266	2.181014	-0.001562	-0.012285	0.001077	0.357863	-0.553149	-0.282778	-0.697135	-0.410661	-76.812851	-125.328460
11557		9.504484	-0.026948	2.191891	0.001266	-0.011386	0.002809	0.357848	-0.553179	-0.282851	-0.697089	-0.392988	-76.821686	-125.341332
11558		9.497240	-0.005688	2.199912	0.003999	-0.011946	0.000631	0.357845	-0.553197	-0.282953	-0.697035	-0.367470	-76.830842	-125.358362
11559		9.538279	0.015502	2.182644	-0.001004	-0.008597	0.002063	0.357825	-0.553220	-0.283015	-0.697002	-0.349182	-76.838079	-125.373200
11560		9.538454	0.015247	2.181883	-0.004920	-0.007371	0.001913	0.357789	-0.553249	-0.283060	-0.696979	-0.332063	-76.844793	-125.389959
11561		9.531110	0.036044	2.190356	-0.005892	-0.006468	0.007524	0.357777	-0.553281	-0.283086	-0.696949	-0.329906	-76.850791	-125.391106
11562		9.538775	0.014059	2.180484	-0.004320	-0.009043	0.003138	0.357756	-0.553312	-0.283140	-0.696914	-0.315530	-76.858385	-125.402905
11563		9.520328	0.039893	2.167807	-0.005312	-0.005460	0.008629	0.357751	-0.553341	-0.283164	-0.696883	-0.315732	-76.863802	-125.401288
11564		9.507585	0.007259	2.166074	-0.000406	-0.010269	0.003288	0.357733	-0.553374	-0.283227	-0.696840	-0.300895	-76.872311	-125.412439
11565		9.507796	0.006892	2.165146	0.000175	-0.009261	0.004392	0.357724	-0.553401	-0.283288	-0.696799	-0.287582	-76.879918	-125.421472
11566		9.500510	0.027849	2.173409	-0.002074	-0.009152	0.003767	0.357717	-0.553423	-0.283355	-0.696757	-0.272241	-76.887312	-125.431725
11567		9.539731	0.011626	2.176313	-0.002655	-0.010159	0.002664	0.357692	-0.553456	-0.283413	-0.696721	-0.256279	-76.895437	-125.445143
11568		9.519584	0.000578	2.183349	-0.003703	-0.013394	0.004488	0.357671	-0.553502	-0.283474	-0.696670	-0.244830	-76.905498	-125.453604
11569		9.562502	0.000431	2.216270	-0.003723	-0.010714	0.004367	0.357648	-0.553541	-0.283524	-0.696630	-0.233648	-76.913936	-125.462740
11570		9.520016	-0.000091	2.181463	0.001104	-0.004804	-0.001460	0.357634	-0.553541	-0.283603	-0.696606	-0.205552	-76.919237	-125.485225
11571		9.514446	0.058030	2.169987	-0.005313	-0.005459	0.008634	0.357629	-0.553571	-0.283626	-0.696575	-0.205729	-76.924654	-125.483634
11572		9.523940	0.015073	2.210538	-0.002077	-0.009151	0.003769	0.357613	-0.553597	-0.283687	-0.696538	-0.189795	-76.932089	-125.495878
11573		9.522320	-0.022484	2.229910	0.004650	-0.006799	0.005525	0.357623	-0.553609	-0.283757	-0.696495	-0.176588	-76.938279	-125.502167
11574		9.496567	0.029484	2.085876	0.020811	-0.014835	0.003431	0.357664	-0.553611	-0.283911	-0.696409	-0.146504	-76.948917	-125.515018
11575		9.478226	0.052217	2.212587	0.021195	-0.016745	-0.003282	0.357675	-0.553615	-0.284080	-0.696331	-0.102056	-76.960815	-125.543644
11576		9.475011	-0.021321	2.251312	-0.000106	-0.016316	-0.007205	0.357623	-0.553649	-0.284192	-0.696286	-0.060352	-76.972638	-125.580502
11577		9.562458	0.016661	2.297990	-0.021712	-0.009838	-0.000627	0.357535	-0.553709	-0.284192	-0.696283	-0.046938	-76.980570	-125.602505
11578		9.529203	0.034832	2.093819	-0.030681	-0.004333	0.019351	0.357493	-0.553802	-0.284090	-0.696272	-0.089513	-76.985775	-125.573406
11579		9.475457	0.091360	2.107538	-0.009544	-0.013039	0.015699	0.357490	-0.553875	-0.284093	-0.696214	-0.109631	-76.995528	-125.553838
11580		9.440640	0.009891	2.133510	-0.007280	-0.015827	0.016448	0.357499	-0.553953	-0.284114	-0.696139	-0.130149	-77.007038	-125.531302
11581		9.452266	-0.054698	2.223473	-0.002984	-0.018963	0.009879	0.357486	-0.554027	-0.284166	-0.696065	-0.132140	-77.020190	-125.526480
11582		9.439782	-0.087986	2.220487	0.000577	-0.023638	0.016989	0.357511	-0.554116	-0.284230	-0.695956	-0.148403	-77.035990	-125.502974
11583		9.451459	-0.036405	2.168290	0.003851	-0.035366	0.012495	0.357503	-0.554238	-0.284329	-0.695823	-0.153133	-77.058537	-125.491324
11584		9.513582	-0.063432	2.210735	0.015470	-0.037826	0.008902	0.357516	-0.554344	-0.284485	-0.695668	-0.143488	-77.082786	-125.486819
11585		9.499603	-0.021188	2.225234	0.008745	-0.042849	0.007289	0.357492	-0.554476	-0.284628	-0.695516	-0.132463	-77.109628	-125.488458
11586		9.524624	0.004753	2.243525	0.000518	-0.035801	0.013601	0.357482	-0.554605	-0.284718	-0.695381	-0.140831	-77.132447	-125.474053
11587		9.503043	0.014323	2.197979	0.011417	-0.035371	0.004742	0.357468	-0.554703	-0.284864	-0.695251	-0.121819	-77.155008	-125.482312
11588		9.527967	0.040634	2.216717	0.008786	-0.033348	0.010843	0.357473	-0.554809	-0.284983	-0.695115	-0.120506	-77.176719	-125.473563
11589		9.539909	0.034726	2.234622	0.014343	-0.033013	0.010387	0.357490	-0.554901	-0.285119	-0.694977	-0.113975	-77.197922	-125.467303
11590		9.561015	0.044712	2.223299	0.011491	-0.031229	0.008543	0.357510	-0.554988	-0.285257	-0.694841	-0.106520	-77.218460	-125.461368
11591		9.539532	-0.003800	2.248857	0.007681	-0.028539	0.012315	0.357521	-0.555079	-0.285357	-0.694721	-0.108661	-77.237098	-125.450129
11592		9.532735	0.016542	2.255479	0.008252	-0.024854	0.013292	0.357546	-0.555161	-0.285450	-0.694605	-0.114346	-77.253943	-125.434625
11593		9.488651	-0.021899	2.239632	0.007641	-0.020504	0.011939	0.357567	-0.555224	-0.285537	-0.694508	-0.115557	-77.267977	-125.424365
11594		9.531943	-0.022797	2.271534	0.001598	-0.020381	0.015215	0.357584	-0.555303	-0.285594	-0.694413	-0.128548	-77.282136	-125.405370
11595		9.504654	-0.013219	2.286979	-0.000762	-0.021729	0.010688	0.357575	-0.555383	-0.285657	-0.694327	-0.131443	-77.296873	-125.398320
11596		9.508906	0.001870	2.315553	-0.005767	-0.013021	0.011870	0.357566	-0.555446	-0.285682	-0.694271	-0.139424	-77.306708	-125.389436
11597		9.493717	-0.064360	2.193588	-0.007438	-0.009225	0.012221	0.357562	-0.555497	-0.285695	-0.694226	-0.149993	-77.314279	-125.378441
11598		9.290018	-0.021819	1.607325	0.039067	0.062915	0.005753	0.357762	-0.555211	-0.285753	-0.694329	-0.117859	-77.280823	-125.385099
11599		10.250665	-0.396718	1.774931	0.008528	0.105995	-0.044094	0.357771	-0.554753	-0.285772	-0.694682	0.023683	-77.222408	-125.520678
11600		11.079076	-0.353931	1.442992	-0.098956	0.152794	0.068470	0.357942	-0.554488	-0.285021	-0.695114	-0.181589	-77.137459	-125.363723
11601		9.723964	0.186659	1.350711	-0.066753	0.164809	0.176855	0.358594	-0.554275	-0.284059	-0.695341	-0.634565	-77.044634	-124.933709
11602		9.079288	0.519759	1.453501	0.059541	0.164567	0.266602	0.359914	-0.553959	-0.283296	-0.695222	-1.230290	-76.950274	-124.281313
11603		9.333312	0.523582	1.341149	0.216670	0.152000	0.335400	0.361883	-0.553504	-0.282903	-0.694724	-1.897833	-76.860386	-123.463956
11604		9.720532	0.277122	1.325915	0.293569	0.183507	0.359818	0.364202	-0.552828	-0.282659	-0.694149	-2.567496	-76.750002	-122.597050
11605		10.222924	-0.093715	1.310154	0.285661	0.220131	0.291599	0.366301	-0.551943	-0.282499	-0.693813	-3.059341	-76.618340	-121.918882
11606		11.079833	-0.551481	1.070417	0.192198	0.270335	0.234683	0.368023	-0.550966	-0.282090	-0.693845	-3.448173	-76.458568	-121.399467
11607		11.700622	-0.765765	0.992831	0.051565	0.321575	0.236540	0.369426	-0.550076	-0.281081	-0.694215	-3.904670	-76.268588	-120.894780
11608		11.364150	-0.448726	1.059433	-0.037941	0.348344	0.305484	0.370854	-0.549357	-0.279520	-0.694653	-4.552951	-76.059621	-120.245561
11609		10.542358	0.035665	1.049584	-0.009499	0.392972	0.422050	0.372829	-0.548585	-0.277654	-0.694954	-5.420113	-75.816973	-119.352669
11610		9.916704	0.410729	1.112037	0.110562	0.426722	0.518213	0.375515	-0.547595	-0.275886	-0.694992	-6.390813	-75.545968	-118.279471
11611		10.014243	0.146544	1.082025	0.203616	0.458232	0.552171	0.378609	-0.546367	-0.274276	-0.694918	-7.338486	-75.250300	-117.175048
11612		10.534341	-0.444604	1.189134	0.176302	0.494115	0.458347	0.381352	-0.544926	-0.272766	-0.695144	-8.050505	-74.937618	-116.327564
11613		11.069474	-1.147115	1.211458	0.028372	0.522548	0.280493	0.383103	-0.543424	-0.271159	-0.695985	-8.441033	-74.621192	-115.901414
11614		10.329115	-1.361575	1.257745	-0.155881	0.571826	0.039235	0.383571	-0.541774	-0.269470	-0.697668	-8.416819	-74.297089	-116.015157
11615		9.517548	-1.324240	1.141244	-0.306210	0.630215	-0.173040	0.382972	-0.539914	-0.267717	-0.700109	-8.046070	-73.956840	-116.578405
11616		8.401800	-0.943566	1.047254	-0.371176	0.696099	-0.339635	0.381691	-0.537720	-0.266055	-0.703124	-7.392557	-73.591032	-117.476514
11617		7.873826	-0.560532	1.369037	-0.360086	0.726356	-0.447077	0.380101	-0.535242	-0.264658	-0.706396	-6.557505	-73.211865	-118.558542
11618		8.491386	-0.525086	1.808834	-0.360681	0.717235	-0.520125	0.378234	-0.532687	-0.263474	-0.709764	-5.630578	-72.837888	-119.737993
11619		8.253228	-0.114813	2.331551	-0.344746	0.714938	-0.572256	0.376209	-0.530030	-0.262476	-0.713191	-4.646944	-72.461947	-120.970814
11620		6.945435	0.855764	2.652634	-0.216227	0.726579	-0.554757	0.374600	-0.527100	-0.261870	-0.716424	-3.666486	-72.072774	-122.124272
11621		6.229443	1.562277	2.887274	0.061250	0.715052	-0.466608	0.374009	-0.523798	-0.262034	-0.719091	-2.727916	-71.681159	-123.070249
11622		6.266621	1.792507	3.192629	0.419091	0.692048	-0.390269	0.374618	-0.519994	-0.263339	-0.721055	-1.757478	-71.296603	-123.832018
11623		7.252347	1.543108	3.531556	0.717468	0.652590	-0.346047	0.376076	-0.515824	-0.265655	-0.722440	-0.725581	-70.929466	-124.483484
11624		8.837934	1.113180	3.975035	0.925582	0.568957	-0.231809	0.378375	-0.511699	-0.268589	-0.723088	0.206993	-70.606722	-124.902615
11625		10.875098	0.647965	4.174212	1.152704	0.475517	0.129083	0.382407	-0.507951	-0.271578	-0.722493	0.670498	-70.337102	-124.688956
11626		12.631818	-0.087915	4.373355	1.305614	0.410325	0.497892	0.388072	-0.504631	-0.274296	-0.720770	0.630288	-70.108532	-123.845064
11627		12.813457	-1.157566	4.649737	1.180340	0.405329	0.455595	0.393224	-0.501482	-0.276663	-0.719269	0.599910	-69.881350	-123.088317
11628		11.125681	-1.623517	4.843585	0.759274	0.479312	0.219244	0.396548	-0.498570	-0.277939	-0.718977	0.698929	-69.611655	-122.728470
11629		9.449261	-1.201765	4.838065	0.328169	0.543035	0.125115	0.398553	-0.496126	-0.277785	-0.719618	0.702302	-69.303654	-122.526554
11630		9.266235	-0.445282	4.688105	0.086452	0.566699	0.253600	0.400444	-0.494266	-0.276382	-0.720388	0.375998	-68.983494	-122.121453
11631		9.527473	0.382842	4.582267	0.086256	0.557754	0.468302	0.403096	-0.492716	-0.274472	-0.720701	-0.251825	-68.666497	-121.390432
11632		8.119397	0.587036	4.672986	0.224030	0.516132	0.424625	0.405867	-0.490983	-0.273240	-0.720797	-0.722308	-68.371893	-120.743278
11633		7.338782	-0.097021	4.872376	0.243810	0.457870	0.129028	0.407539	-0.489000	-0.272928	-0.721319	-0.743529	-68.110980	-120.565258
11634		8.377060	-0.344779	4.776210	0.102643	0.451142	0.013527	0.408434	-0.487180	-0.272392	-0.722246	-0.683056	-67.855510	-120.563751
11635		9.154567	0.087048	4.500424	0.019448	0.424705	0.104074	0.409419	-0.485735	-0.271396	-0.723036	-0.794288	-67.613776	-120.426737
11636		8.696711	0.312959	4.379594	0.052417	0.379020	0.135782	0.410533	-0.484444	-0.270522	-0.723599	-0.933601	-67.398756	-120.240703
11637		8.073485	0.217572	4.326380	0.086863	0.335883	0.084960	0.411488	-0.483152	-0.269996	-0.724116	-0.977195	-67.207893	-120.134708
11638		8.013331	0.048990	4.311882	0.067252	0.296597	0.041203	0.412183	-0.481997	-0.269573	-0.724648	-0.976889	-67.040795	-120.090088
11639		8.241125	-0.014943	4.198106	0.034698	0.255061	0.038376	0.412733	-0.481040	-0.269136	-0.725133	-0.987673	-66.896672	-120.051960
11640		8.410069	0.002055	4.088976	0.014682	0.213516	0.064602	0.413268	-0.480325	-0.268635	-0.725488	-1.049495	-66.776885	-119.972977
11641		8.389415	-0.014305	4.029638	0.003063	0.168783	0.083781	0.413790	-0.479806	-0.268152	-0.725712	-1.140022	-66.681661	-119.867708
11642		8.244784	-0.033663	4.003797	0.007180	0.122162	0.077227	0.414212	-0.479462	-0.267772	-0.725839	-1.224022	-66.614227	-119.771789
11643		8.203571	-0.061659	4.045254	0.016243	0.081358	0.065547	0.414582	-0.479208	-0.267561	-0.725873	-1.284156	-66.569196	-119.691302
11644		8.274984	-0.098709	4.074009	0.034144	0.035673	0.042867	0.414851	-0.479066	-0.267552	-0.725817	-1.309499	-66.551361	-119.639119
11645		8.399738	-0.176819	4.128569	0.034324	0.003516	0.027480	0.415022	-0.479007	-0.267659	-0.725719	-1.311110	-66.551386	-119.611106
11646		8.502858	-0.206053	4.169724	0.018446	-0.026792	0.021905	0.415093	-0.479084	-0.267787	-0.725580	-1.315295	-66.569074	-119.590063
11647		8.578232	-0.241382	4.190361	-0.005976	-0.051155	0.023250	0.415079	-0.479300	-0.267871	-0.725414	-1.336115	-66.600467	-119.566285
11648		8.690768	-0.197856	4.160140	-0.027407	-0.069539	0.029210	0.415010	-0.479637	-0.267903	-0.725219	-1.377692	-66.642520	-119.533149
11649		8.795749	-0.173348	4.179537	-0.055669	-0.083149	0.041791	0.414901	-0.480098	-0.267829	-0.725004	-1.452853	-66.691962	-119.481213
11650		8.842226	-0.143102	4.191125	-0.066424	-0.087587	0.050710	0.414792	-0.480610	-0.267705	-0.724773	-1.546423	-66.743986	-119.415842
11651		8.919847	-0.145156	4.161862	-0.067002	-0.089721	0.058868	0.414708	-0.481140	-0.267562	-0.724522	-1.651718	-66.796852	-119.338221
11652		8.924390	-0.171356	4.124609	-0.057684	-0.086797	0.060951	0.414658	-0.481645	-0.267444	-0.724259	-1.754685	-66.848146	-119.257238
11653		8.877882	-0.171748	4.029719	-0.035186	-0.085070	0.055044	0.414643	-0.482087	-0.267415	-0.723984	-1.837205	-66.898312	-119.184619
11654		8.859202	-0.187056	4.027179	-0.026959	-0.085438	0.053402	0.414641	-0.482512	-0.267423	-0.723699	-1.913092	-66.948865	-119.114004
11655		8.782473	-0.252001	4.033403	-0.031241	-0.091853	0.050449	0.414610	-0.482964	-0.267434	-0.723411	-1.988123	-67.002928	-119.047121
11656		8.750148	-0.258592	3.983902	-0.029180	-0.101336	0.044919	0.414551	-0.483440	-0.267487	-0.723107	-2.055235	-67.062675	-118.987481
11657		8.784225	-0.277076	3.962820	-0.033108	-0.117132	0.051365	0.414484	-0.483988	-0.267542	-0.722759	-2.134516	-67.131127	-118.917207
11658		8.781838	-0.318161	3.973810	-0.034751	-0.128079	0.045319	0.414377	-0.484572	-0.267629	-0.722397	-2.207486	-67.206108	-118.854741
11659		8.824522	-0.319932	3.899335	-0.057484	-0.136308	0.050277	0.414221	-0.485238	-0.267637	-0.722036	-2.301204	-67.285488	-118.784032
11660		8.881673	-0.330816	3.869829	-0.083253	-0.146593	0.046647	0.413975	-0.486001	-0.267573	-0.721687	-2.409721	-67.371366	-118.714630
11661		8.930590	-0.302240	3.875409	-0.105371	-0.145977	0.050074	0.413689	-0.486800	-0.267428	-0.721366	-2.532433	-67.456181	-118.642322
11662		8.943197	-0.275438	3.840098	-0.114062	-0.149331	0.050768	0.413382	-0.487640	-0.267249	-0.721041	-2.666145	-67.543425	-118.564564
11663		8.992698	-0.266066	3.816040	-0.122447	-0.144967	0.048617	0.413049	-0.488469	-0.267044	-0.720747	-2.798058	-67.627575	-118.492976
11664		8.975628	-0.265770	3.837522	-0.112513	-0.142640	0.042585	0.412717	-0.489274	-0.266871	-0.720455	-2.920908	-67.711210	-118.427287
11665		9.002749	-0.285764	3.893531	-0.097598	-0.134512	0.031360	0.412396	-0.489989	-0.266775	-0.720188	-3.015081	-67.789776	-118.381177
11666		9.044167	-0.251881	3.877077	-0.101570	-0.133144	0.030963	0.412055	-0.490724	-0.266647	-0.719931	-3.115565	-67.868367	-118.333797
11667		9.012434	-0.258691	3.824644	-0.099005	-0.127146	0.019747	0.411698	-0.491399	-0.266560	-0.719706	-3.194571	-67.943028	-118.304978
11668		9.053884	-0.263683	3.853542	-0.107884	-0.121111	0.016347	0.411298	-0.492083	-0.266420	-0.719520	-3.276470	-68.015097	-118.282029
11669		9.035856	-0.220729	3.832686	-0.115006	-0.122884	0.016703	0.410896	-0.492771	-0.266273	-0.719333	-3.360697	-68.087391	-118.257494
11670		8.981654	-0.236168	3.786578	-0.122981	-0.120185	0.010523	0.410449	-0.493463	-0.266101	-0.719177	-3.441761	-68.158476	-118.242601
11671		8.978522	-0.219439	3.782339	-0.126726	-0.117708	0.006084	0.409987	-0.494142	-0.265928	-0.719039	-3.517748	-68.228152	-118.234199
11672		8.953469	-0.211399	3.783563	-0.123998	-0.121071	-0.001027	0.409497	-0.494823	-0.265783	-0.718903	-3.583757	-68.300253	-118.235781
11673		8.973078	-0.224679	3.818105	-0.123908	-0.119898	-0.004962	0.408998	-0.495488	-0.265651	-0.718778	-3.642893	-68.371573	-118.243781
11674		8.962676	-0.219998	3.761208	-0.128443	-0.126180	-0.007734	0.408470	-0.496188	-0.265518	-0.718645	-3.703636	-68.446909	-118.253459
11675		8.945622	-0.233069	3.754818	-0.135303	-0.132294	-0.016635	0.407884	-0.496905	-0.265399	-0.718526	-3.753849	-68.525757	-118.278060
11676		8.921126	-0.223832	3.755086	-0.138789	-0.132585	-0.015714	0.407298	-0.497637	-0.265262	-0.718403	-3.810495	-68.605079	-118.297811
11677		8.889281	-0.192266	3.761951	-0.135323	-0.143105	-0.021545	0.406679	-0.498385	-0.265177	-0.718266	-3.854775	-68.690312	-118.328768
11678		8.865275	-0.199971	3.731408	-0.138633	-0.151605	-0.025849	0.406013	-0.499172	-0.265099	-0.718125	-3.896169	-68.780848	-118.366771
11679		8.885247	-0.188658	3.689207	-0.137603	-0.156465	-0.032531	0.405330	-0.499958	-0.265059	-0.717978	-3.926924	-68.874162	-118.413594
11680		8.833455	-0.222923	3.713842	-0.130219	-0.171014	-0.037867	0.404615	-0.500782	-0.265079	-0.717801	-3.947796	-68.976381	-118.468654
11681		8.824588	-0.215179	3.652377	-0.135176	-0.187665	-0.037622	0.403877	-0.501667	-0.265124	-0.717582	-3.972528	-69.087746	-118.520374
11682		8.799940	-0.232660	3.484311	-0.127296	-0.210489	-0.037595	0.403134	-0.502621	-0.265238	-0.717289	-3.997633	-69.212405	-118.566962
11683		8.823478	-0.242753	3.509878	-0.127206	-0.229456	-0.047774	0.402323	-0.503625	-0.265420	-0.716973	-4.006460	-69.348075	-118.630719
11684		8.858053	-0.263533	3.660153	-0.137515	-0.235841	-0.050308	0.401459	-0.504678	-0.265573	-0.716660	-4.019958	-69.487971	-118.697866
11685		9.015388	-0.258672	3.692927	-0.150444	-0.237721	-0.049581	0.400571	-0.505754	-0.265692	-0.716354	-4.039511	-69.628448	-118.764270
11686		9.087347	-0.301044	3.534223	-0.165107	-0.232996	-0.043169	0.399671	-0.506853	-0.265727	-0.716067	-4.077560	-69.766134	-118.820706
11687		9.102157	-0.267140	3.490731	-0.175477	-0.252590	-0.037370	0.398742	-0.508046	-0.265754	-0.715729	-4.131677	-69.914639	-118.865449
11688		9.100388	-0.308135	3.568618	-0.163222	-0.259710	-0.033257	0.397849	-0.509249	-0.265824	-0.715345	-4.187930	-70.067295	-118.900755
11689		9.016267	-0.330581	2.567377	-0.105605	-0.213961	-0.039910	0.397139	-0.510159	-0.266030	-0.715015	-4.193472	-70.193855	-118.954497
11690		11.923389	-0.656367	2.026403	-0.032428	-0.049863	0.084957	0.397279	-0.510503	-0.265852	-0.714758	-4.335934	-70.221324	-118.818140
11691		20.496524	-2.079885	1.609133	-0.238281	0.137188	0.818224	0.399759	-0.511557	-0.262693	-0.713789	-5.731328	-70.104574	-117.475167
11692		14.518594	-0.750726	1.604030	-0.536956	-0.071595	1.004787	0.401861	-0.514190	-0.258400	-0.712283	-7.617123	-70.081496	-115.792076
11693		7.171848	0.946728	1.451463	-0.129104	0.037240	0.838441	0.404546	-0.515384	-0.255763	-0.710850	-8.975350	-69.993996	-114.421030
11694		6.523753	1.536205	1.395775	0.430734	0.129852	1.040278	0.409492	-0.515371	-0.254394	-0.708514	-10.287905	-69.824475	-112.757639
11695		7.764259	1.156104	1.494687	0.806738	0.107097	1.167894	0.415820	-0.514801	-0.254073	-0.705351	-11.558083	-69.640531	-110.906197
11696		9.148839	-0.364630	1.416716	0.898249	0.059564	0.958096	0.421582	-0.513908	-0.254716	-0.702344	-12.449620	-69.495961	-109.397852
11697		10.722265	-1.906873	1.445910	0.730405	0.125523	0.617917	0.425770	-0.512696	-0.255482	-0.700423	-12.894200	-69.351373	-108.471246
11698		10.901202	-2.496344	1.372664	0.455246	0.290771	0.298502	0.428326	-0.511081	-0.255741	-0.699950	-12.959915	-69.154511	-108.119048
11699		10.525035	-2.432173	1.350956	0.206463	0.419036	0.106110	0.429746	-0.509294	-0.255351	-0.700524	-12.841606	-68.910173	-108.114326
11700		9.340227	-1.866059	1.525849	0.043743	0.542977	0.010004	0.430564	-0.507299	-0.254368	-0.701826	-12.639046	-68.609153	-108.300503
11701		8.620610	-1.275725	1.781257	-0.042917	0.600980	-0.004690	0.431188	-0.505261	-0.252990	-0.703409	-12.453140	-68.276863	-108.522073
11702		8.594951	-1.153071	1.942896	-0.062072	0.630475	-0.053759	0.431616	-0.503101	-0.251600	-0.705191	-12.208065	-67.934312	-108.820858
11703		8.588514	-1.200620	2.271161	-0.094307	0.654248	-0.147253	0.431666	-0.500797	-0.250281	-0.707267	-11.854930	-67.588479	-109.255968
11704		8.437733	-1.445543	2.364862	-0.156543	0.667146	-0.298875	0.431041	-0.498383	-0.249097	-0.709767	-11.341889	-67.251869	-109.902743
11705		8.630804	-2.146799	2.408425	-0.301583	0.694209	-0.556201	0.429161	-0.495859	-0.247970	-0.713061	-10.581409	-66.925089	-110.911144
11706		8.344296	-2.293496	2.658960	-0.523615	0.754075	-0.839059	0.425766	-0.493243	-0.246608	-0.717370	-9.589650	-66.587755	-112.314747
11707		7.663791	-1.955690	2.862931	-0.762356	0.806062	-1.084955	0.420961	-0.490610	-0.244882	-0.722583	-8.440717	-66.231980	-114.040231
11708		6.851262	-1.235140	3.052867	-0.972217	0.824854	-1.263447	0.414987	-0.488103	-0.242778	-0.728423	-7.224943	-65.865794	-115.975703
11709		6.305294	-0.045527	3.534103	-1.073022	0.791630	-1.358824	0.408346	-0.485763	-0.240588	-0.734442	-5.998337	-65.507642	-117.991433
11710		6.336520	0.702820	4.070867	-1.149001	0.706062	-1.438080	0.401093	-0.483758	-0.238465	-0.740431	-4.774300	-65.185489	-120.057564
11711		5.031372	2.011736	4.231532	-1.078230	0.648516	-1.420921	0.393963	-0.481793	-0.236654	-0.746098	-3.576237	-64.876761	-122.055710
11712		4.567064	3.901748	4.499091	-0.758964	0.578422	-1.161410	0.388477	-0.479738	-0.235533	-0.750640	-2.555217	-64.584594	-123.659318
11713		5.547447	4.720325	4.544574	-0.017762	0.573947	-0.691443	0.386495	-0.476790	-0.236064	-0.753370	-1.698662	-64.273133	-124.615254
11714		8.773758	4.071104	4.568438	1.139391	0.572056	-0.016566	0.389832	-0.472394	-0.239349	-0.753384	-1.000120	-63.948486	-124.657800
11715		12.735986	2.390178	4.877676	2.463212	0.520389	0.839965	0.399386	-0.466587	-0.245664	-0.749958	-0.544772	-63.646219	-123.587409
11716		14.162746	0.338024	5.390242	3.381477	0.384654	1.526819	0.413440	-0.460169	-0.254039	-0.743489	-0.352571	-63.421355	-121.626964
11717		13.923342	-1.330014	5.584867	3.549061	0.272139	1.659133	0.428021	-0.453828	-0.262859	-0.736032	-0.197580	-63.263172	-119.520111
11718		13.186570	-2.994071	6.254011	2.674541	0.328957	0.969475	0.438094	-0.448100	-0.269837	-0.731073	0.243069	-63.076916	-118.285020
11719		11.605773	-3.568549	6.354224	1.313801	0.437021	0.235442	0.442460	-0.443918	-0.273203	-0.729744	0.740867	-62.829948	-117.993790
11720		9.747866	-1.666134	6.065786	0.331815	0.530710	0.222487	0.444732	-0.441552	-0.272786	-0.729954	0.682797	-62.530788	-117.709964
11721		7.960106	-0.133294	5.658783	-0.075123	0.534172	0.245246	0.446171	-0.440089	-0.270836	-0.730686	0.379047	-62.228300	-117.410729
11722		6.476500	0.416258	5.711766	-0.180609	0.496244	-0.007300	0.446400	-0.438679	-0.269119	-0.732026	0.286553	-61.947763	-117.421153
11723		6.783368	0.372249	5.596891	-0.258768	0.468216	-0.222928	0.445627	-0.437228	-0.267670	-0.733895	0.386728	-61.681020	-117.697991
11724		8.269008	0.590662	5.357551	-0.239927	0.448757	-0.175231	0.445041	-0.435869	-0.266229	-0.735581	0.444120	-61.425854	-117.914344
11725		9.038768	0.896678	5.127859	-0.085740	0.412659	-0.021863	0.445304	-0.434499	-0.265097	-0.736640	0.427451	-61.191593	-117.946297
11726		8.464391	0.869942	5.089005	0.115634	0.368093	0.044444	0.446188	-0.432932	-0.264664	-0.737183	0.457504	-60.983553	-117.899654
11727		7.655843	0.596528	5.105554	0.245810	0.343267	0.004117	0.447170	-0.431110	-0.264849	-0.737589	0.603554	-60.789161	-117.900552
11728		7.377129	0.274986	5.163056	0.271349	0.311835	-0.051287	0.447960	-0.429273	-0.265320	-0.738012	0.820201	-60.612762	-117.965394
11729		7.585436	0.056743	5.192658	0.226190	0.272819	-0.098946	0.448423	-0.427615	-0.265810	-0.738517	1.058223	-60.457763	-118.084841
11730		7.993130	-0.022212	5.127618	0.142991	0.239376	-0.107750	0.448631	-0.426255	-0.266089	-0.739076	1.256583	-60.321950	-118.213452
11731		8.180872	0.037892	4.991428	0.075819	0.209393	-0.106938	0.448657	-0.425155	-0.266182	-0.739660	1.414917	-60.202772	-118.340673
11732		8.156809	0.134234	4.943838	0.050579	0.174070	-0.108742	0.448575	-0.424242	-0.266266	-0.740204	1.560570	-60.103971	-118.469875
11733		7.949362	0.179887	4.944350	0.023632	0.141192	-0.122305	0.448342	-0.423490	-0.266351	-0.740745	1.704262	-60.023277	-118.614957
11734		7.872882	0.223360	4.919984	-0.005643	0.115207	-0.135672	0.447962	-0.422883	-0.266416	-0.741298	1.844618	-59.957378	-118.775458
11735		7.984284	0.275028	4.938066	-0.009210	0.097913	-0.131105	0.447568	-0.422353	-0.266494	-0.741810	1.978265	-59.900948	-118.930874
11736		8.299794	0.289417	4.992243	-0.018831	0.088837	-0.108768	0.447225	-0.421909	-0.266512	-0.742263	2.084291	-59.850325	-119.060609
11737		8.517722	0.254205	4.958234	-0.013615	0.088005	-0.077732	0.447006	-0.421496	-0.266483	-0.742640	2.162296	-59.800413	-119.154744
11738		8.599851	0.182910	4.993072	0.030115	0.090865	-0.063118	0.446937	-0.420996	-0.266581	-0.742929	2.250711	-59.749433	-119.231776
11739		8.596178	0.165287	5.147498	0.030003	0.093618	-0.049917	0.446921	-0.420501	-0.266643	-0.743197	2.325632	-59.696809	-119.293499
11740		8.549339	0.168488	5.236785	0.034758	0.096922	-0.049126	0.446922	-0.419986	-0.266716	-0.743461	2.402251	-59.642583	-119.353865
11741		8.559610	0.165499	5.341080	0.056661	0.101561	-0.058211	0.446941	-0.419391	-0.266876	-0.743728	2.499723	-59.585120	-119.424093
11742		8.592505	0.155233	5.391778	0.063969	0.114925	-0.061668	0.446980	-0.418727	-0.267043	-0.744019	2.603958	-59.520162	-119.497158
11743		8.428967	0.084002	5.369002	0.073263	0.120367	-0.061361	0.447047	-0.418020	-0.267229	-0.744309	2.712492	-59.451724	-119.569277
11744		8.138555	0.052102	5.295307	0.088905	0.107035	-0.052503	0.447161	-0.417341	-0.267487	-0.744529	2.821756	-59.391385	-119.631694
11745		7.939624	0.031680	5.355743	0.085846	0.088144	-0.041512	0.447285	-0.416753	-0.267751	-0.744690	2.919157	-59.341820	-119.682584
11746		7.809195	0.059485	5.259783	0.079872	0.070022	-0.010518	0.447487	-0.416287	-0.267970	-0.744750	2.984036	-59.303780	-119.699488
11747		7.638705	0.065173	5.191198	0.098263	0.044368	0.008587	0.447763	-0.415901	-0.268273	-0.744691	3.042171	-59.280708	-119.696473
11748		7.652343	0.083306	5.142551	0.113266	0.010488	0.017620	0.448060	-0.415620	-0.268691	-0.744519	3.101995	-59.277557	-119.685262
11749		7.772141	0.053052	5.145031	0.112529	-0.016548	0.027073	0.448353	-0.415452	-0.269145	-0.744272	3.153633	-59.289916	-119.665181
11750		7.958832	0.107445	5.093928	0.103222	-0.037730	0.032201	0.448617	-0.415393	-0.269602	-0.743980	3.196197	-59.314807	-119.640606
11751		8.121834	0.188224	5.146970	0.094309	-0.050026	0.030674	0.448840	-0.415395	-0.270056	-0.743679	3.235736	-59.346449	-119.618606
11752		8.321063	0.234520	5.165588	0.086155	-0.049688	0.031608	0.449051	-0.415417	-0.270478	-0.743387	3.269749	-59.378169	-119.595480
11753		8.415806	0.328572	5.130319	0.088660	-0.052758	0.027451	0.449246	-0.415438	-0.270924	-0.743094	3.309340	-59.411282	-119.577315
11754		8.542696	0.368376	5.184133	0.077860	-0.046665	0.027311	0.449427	-0.415461	-0.271317	-0.742829	3.342607	-59.441138	-119.558861
11755		8.583548	0.465848	5.158012	0.052970	-0.042651	0.035294	0.449591	-0.415535	-0.271590	-0.742588	3.353593	-59.468741	-119.531238
11756		8.507552	0.519975	5.122098	0.054960	-0.037416	0.038993	0.449780	-0.415591	-0.271853	-0.742346	3.361875	-59.493700	-119.499024
11757		8.419926	0.466075	5.078784	0.072418	-0.027053	0.040944	0.450027	-0.415571	-0.272152	-0.742098	3.377598	-59.512578	-119.463979
11758		8.351577	0.498954	5.040733	0.099283	-0.020567	0.039279	0.450338	-0.415473	-0.272533	-0.741825	3.407022	-59.528282	-119.427590
11759		8.262690	0.465889	5.049425	0.111734	-0.029208	0.032787	0.450633	-0.415361	-0.272999	-0.741537	3.453320	-59.548132	-119.401897
11760		8.231610	0.426328	5.072585	0.097256	-0.036429	0.025287	0.450860	-0.415302	-0.273442	-0.741269	3.498290	-59.572248	-119.384592
11761		8.276103	0.408773	5.135143	0.081526	-0.034835	0.023076	0.451048	-0.415265	-0.273829	-0.741032	3.537089	-59.594994	-119.370284
11762		8.357542	0.319028	5.061719	0.072633	-0.032600	0.027993	0.451239	-0.415248	-0.274169	-0.740800	3.565708	-59.616883	-119.350062
11763		8.344322	0.306685	5.109910	0.058057	-0.027704	0.037439	0.451441	-0.415258	-0.274423	-0.740577	3.576627	-59.636070	-119.319031
11764		8.337297	0.328736	5.110966	0.056861	-0.021482	0.048036	0.451687	-0.415263	-0.274638	-0.740345	3.576247	-59.652328	-119.275767
11765		8.402217	0.355615	5.076675	0.048720	-0.011859	0.052765	0.451948	-0.415256	-0.274789	-0.740133	3.565844	-59.663002	-119.226238
11766		8.435843	0.395413	5.049123	0.026399	-0.008321	0.051214	0.452161	-0.415284	-0.274855	-0.739962	3.544129	-59.671787	-119.178337
11767		8.418964	0.343847	4.972712	0.006376	-0.007666	0.050763	0.452332	-0.415354	-0.274845	-0.739822	3.511124	-59.679973	-119.130739
11768		8.349761	0.371975	4.936449	0.007025	-0.005519	0.048038	0.452499	-0.415412	-0.274840	-0.739690	3.481034	-59.686986	-119.085858
11769		8.292892	0.376136	4.920767	0.021089	-0.011367	0.042643	0.452665	-0.415451	-0.274909	-0.739540	3.464584	-59.696984	-119.047680
11770		8.302565	0.330324	5.063623	0.026844	-0.008790	0.040671	0.452841	-0.415466	-0.275000	-0.739391	3.453299	-59.705608	-119.011490
11771		8.315272	0.303081	5.083752	0.006500	-0.005258	0.040210	0.452977	-0.415512	-0.275006	-0.739279	3.430481	-59.712018	-118.975623
11772		8.354986	0.262855	5.073805	-0.015126	-0.007437	0.038650	0.453059	-0.415614	-0.274943	-0.739195	3.396919	-59.719797	-118.941542
11773		8.370416	0.271655	5.022094	-0.016959	-0.011472	0.036276	0.453123	-0.415731	-0.274885	-0.739111	3.364842	-59.729610	-118.910525
11774		8.299457	0.244158	5.005709	0.000006	-0.016645	0.035819	0.453213	-0.415829	-0.274904	-0.738994	3.343353	-59.742533	-118.880399
11775		8.189398	0.254303	4.998509	0.010997	-0.017708	0.033319	0.453316	-0.415901	-0.274970	-0.738866	3.330511	-59.755802	-118.853113
11776		8.266112	0.274105	5.036140	0.005472	-0.020515	0.030012	0.453391	-0.415993	-0.275029	-0.738746	3.318006	-59.770733	-118.829770
11777		8.234192	0.229196	5.061026	-0.009358	-0.022017	0.035618	0.453453	-0.416131	-0.275025	-0.738631	3.291448	-59.786535	-118.800116
11778		8.243734	0.202716	5.055864	-0.026094	-0.024939	0.033545	0.453469	-0.416315	-0.274971	-0.738538	3.257667	-59.804095	-118.773101
11779		8.297332	0.232192	4.948991	-0.045370	-0.024719	0.035670	0.453453	-0.416544	-0.274840	-0.738467	3.210506	-59.821425	-118.743492
11780		8.384209	0.300541	5.014229	-0.057582	-0.016224	0.036913	0.453428	-0.416773	-0.274642	-0.738427	3.154672	-59.834107	-118.711925
11781		8.505553	0.352345	5.097976	-0.057584	-0.008347	0.034185	0.453404	-0.416968	-0.274432	-0.738411	3.101013	-59.841997	-118.682902
11782		8.534371	0.276151	5.112131	-0.061184	0.006012	0.033090	0.453388	-0.417116	-0.274179	-0.738430	3.045666	-59.841772	-118.654192
11783		8.473604	0.376080	4.958460	-0.063878	0.014397	0.026699	0.453354	-0.417231	-0.273909	-0.738487	2.994563	-59.836396	-118.632297
11784		8.393173	0.369647	4.947573	-0.070410	0.003044	0.022307	0.453274	-0.417397	-0.273650	-0.738537	2.944588	-59.837557	-118.616018
11785		8.402623	0.302482	5.040100	-0.062475	-0.001343	0.006977	0.453149	-0.417540	-0.273463	-0.738603	2.914517	-59.840592	-118.617519
11786		8.391953	0.265162	5.064121	-0.059354	0.008404	0.010485	0.453057	-0.417645	-0.273258	-0.738676	2.882252	-59.838305	-118.614320
11787		8.348822	0.281871	4.999507	-0.056115	0.014094	0.012710	0.452987	-0.417723	-0.273046	-0.738753	2.849413	-59.832672	-118.608405
11788		8.386810	0.278238	5.093277	-0.050547	-0.001708	0.008316	0.452891	-0.417842	-0.272902	-0.738798	2.825030	-59.836072	-118.608412
11789		8.417957	0.260442	5.086716	-0.062366	-0.007978	0.011040	0.452771	-0.418014	-0.272721	-0.738841	2.791330	-59.843020	-118.605643
11790		8.456740	0.255779	5.179209	-0.081131	-0.010801	0.007916	0.452597	-0.418236	-0.272485	-0.738909	2.750175	-59.851633	-118.606595
11791		8.418398	0.287547	5.188038	-0.094677	-0.017260	0.004256	0.452373	-0.418506	-0.272219	-0.738992	2.705066	-59.863706	-118.612041
11792		8.438048	0.293626	5.159949	-0.090288	-0.017761	-0.004124	0.452125	-0.418757	-0.271989	-0.739085	2.670740	-59.876003	-118.627049
11793		8.358852	0.289220	5.146828	-0.076588	-0.018155	-0.014889	0.451866	-0.418964	-0.271833	-0.739184	2.654906	-59.888082	-118.654356
11794		8.271568	0.308690	5.136962	-0.066663	-0.023762	-0.017266	0.451612	-0.419166	-0.271732	-0.739262	2.647404	-59.903412	-118.684569
11795		8.192787	0.306266	5.123116	-0.057687	-0.030061	-0.023496	0.451344	-0.419361	-0.271690	-0.739330	2.651471	-59.922081	-118.722352
11796		8.208965	0.319109	5.070040	-0.052599	-0.028418	-0.034634	0.451049	-0.419524	-0.271688	-0.739418	2.669612	-59.939574	-118.772806
11797		8.214697	0.299786	5.040098	-0.044862	-0.033939	-0.051292	0.450700	-0.419668	-0.271761	-0.739523	2.708776	-59.959702	-118.842633
11798		8.263304	0.261161	5.075311	-0.043136	-0.035301	-0.069927	0.450284	-0.419787	-0.271883	-0.739663	2.767548	-59.980169	-118.933861
11799		8.316426	0.203013	5.082624	-0.056269	-0.040770	-0.077566	0.449805	-0.419946	-0.271984	-0.739828	2.826710	-60.003406	-119.034299
11800		8.343268	0.271570	5.056415	-0.071523	-0.050025	-0.082273	0.449264	-0.420167	-0.272059	-0.740004	2.882336	-60.031873	-119.140715
11801		8.337047	0.314515	5.107544	-0.096046	-0.052771	-0.075390	0.448692	-0.420462	-0.272035	-0.740192	2.917415	-60.061950	-119.239607
11802		8.339778	0.315783	5.103005	-0.097791	-0.063424	-0.073719	0.448108	-0.420803	-0.272026	-0.740355	2.950674	-60.098230	-119.337463
11803		8.404477	0.307120	5.136216	-0.097990	-0.068589	-0.076224	0.447507	-0.421159	-0.272032	-0.740514	2.986596	-60.137273	-119.438539
11804		8.438591	0.312211	5.175506	-0.097667	-0.074054	-0.070881	0.446919	-0.421542	-0.272040	-0.740648	3.018018	-60.179650	-119.534111
11805		8.446397	0.310915	5.193282	-0.084827	-0.078957	-0.068352	0.446361	-0.421918	-0.272101	-0.740749	3.054546	-60.224805	-119.627110
11806		8.356098	0.279497	5.174404	-0.080532	-0.085874	-0.067435	0.445805	-0.422311	-0.272192	-0.740826	3.093282	-60.273982	-119.719709
11807		8.257921	0.270821	5.158632	-0.084257	-0.097847	-0.073416	0.445203	-0.422748	-0.272307	-0.740896	3.136683	-60.329723	-119.820151
11808		8.308192	0.272916	5.092807	-0.087128	-0.106470	-0.080824	0.444556	-0.423212	-0.272448	-0.740968	3.186689	-60.390167	-119.929933
11809		8.266218	0.298706	4.994631	-0.092656	-0.123718	-0.077302	0.443886	-0.423758	-0.272597	-0.741003	3.231256	-60.460501	-120.037126
11810		8.227209	0.334737	5.145586	-0.104682	-0.129925	-0.074359	0.443192	-0.424357	-0.272710	-0.741033	3.266708	-60.534510	-120.141693
11811		8.194432	0.318912	4.990484	-0.111886	-0.140743	-0.068008	0.442492	-0.425021	-0.272806	-0.741036	3.292545	-60.614822	-120.239874
11812		8.211394	0.353530	4.955671	-0.096156	-0.155530	-0.071050	0.441793	-0.425699	-0.273000	-0.740993	3.331924	-60.703495	-120.343126
11813		8.237361	0.366306	4.915697	-0.093531	-0.169205	-0.072459	0.441075	-0.426421	-0.273236	-0.740918	3.375332	-60.799876	-120.449222
11814		8.347877	0.356293	5.031287	-0.095010	-0.186629	-0.071986	0.440333	-0.427209	-0.273504	-0.740807	3.419096	-60.906200	-120.556473
11815		8.379953	0.383672	5.064457	-0.103787	-0.192506	-0.074588	0.439552	-0.428036	-0.273757	-0.740700	3.461325	-61.015755	-120.667726
11816		8.354215	0.401067	5.031792	-0.106920	-0.200973	-0.081815	0.438727	-0.428889	-0.274033	-0.740594	3.510391	-61.129869	-120.788664
11817		8.413609	0.417635	5.032466	-0.123846	-0.210498	-0.084571	0.437841	-0.429811	-0.274272	-0.740495	3.553902	-61.249274	-120.914252
11818		8.433505	0.452390	4.991910	-0.139475	-0.222206	-0.083482	0.436908	-0.430811	-0.274476	-0.740389	3.588842	-61.375369	-121.040072
11819		8.354906	0.456217	4.915930	-0.136697	-0.234712	-0.088739	0.435944	-0.431843	-0.274728	-0.740263	3.632432	-61.508387	-121.173831
11820		8.325928	0.475067	4.856740	-0.156397	-0.240991	-0.081787	0.434953	-0.432950	-0.274906	-0.740133	3.658764	-61.645195	-121.300587
11821		8.323218	0.482500	4.765729	-0.162070	-0.248993	-0.079315	0.433948	-0.434101	-0.275074	-0.739986	3.680380	-61.786658	-121.425555
11822		8.325806	0.446885	4.768247	-0.161360	-0.256098	-0.077712	0.432938	-0.435279	-0.275255	-0.739819	3.702109	-61.932214	-121.550045
11823		8.293114	0.427487	4.754224	-0.154508	-0.263459	-0.078277	0.431931	-0.436466	-0.275479	-0.739624	3.729520	-62.081939	-121.676329
11824		8.301509	0.388799	4.779186	-0.165224	-0.270671	-0.075024	0.430900	-0.437707	-0.275671	-0.739421	3.748743	-62.235880	-121.800185
11825		8.359012	0.405484	4.749816	-0.167499	-0.281007	-0.072918	0.429858	-0.438993	-0.275871	-0.739190	3.765797	-62.395796	-121.922821
11826		8.510989	0.398051	4.746779	-0.202582	-0.290068	-0.065977	0.428750	-0.440395	-0.275945	-0.738972	3.756771	-62.561095	-122.038469
11827		8.618971	0.427013	4.731661	-0.221266	-0.298366	-0.049536	0.427649	-0.441890	-0.275931	-0.738723	3.719870	-62.731828	-122.134673
11828		8.749702	0.463814	4.711561	-0.223241	-0.310190	-0.040763	0.426558	-0.443443	-0.275914	-0.738429	3.673545	-62.909618	-122.221364
11829		8.712101	0.425689	4.617411	-0.199397	-0.302757	-0.036124	0.425546	-0.444923	-0.275958	-0.738107	3.635242	-63.083416	-122.301630
11830		8.701152	0.451924	4.526231	-0.183896	-0.296277	-0.036843	0.424573	-0.446343	-0.276046	-0.737777	3.606678	-63.253477	-122.382826
11831		8.728523	0.364605	4.537229	-0.173008	-0.295918	-0.043405	0.423600	-0.447729	-0.276188	-0.737443	3.592032	-63.423137	-122.472404
11832		8.727428	0.363549	4.591834	-0.178860	-0.292043	-0.042105	0.422621	-0.449112	-0.276296	-0.737123	3.572967	-63.590592	-122.560696
11833		8.654404	0.337163	4.635086	-0.187926	-0.288673	-0.045524	0.421614	-0.450497	-0.276370	-0.736827	3.552664	-63.756060	-122.653237
11834		8.594916	0.363941	4.582193	-0.205584	-0.285922	-0.033048	0.420615	-0.451925	-0.276344	-0.736533	3.508140	-63.920360	-122.729974
11835		8.655104	0.357884	4.521266	-0.190058	-0.291298	-0.037780	0.419626	-0.453332	-0.276397	-0.736213	3.478529	-64.087649	-122.813256
11836		8.692808	0.343060	4.464155	-0.182319	-0.283411	-0.030870	0.418689	-0.454701	-0.276445	-0.735884	3.445025	-64.250633	-122.887220
11837		8.643711	0.328918	4.377664	-0.186218	-0.291359	-0.027105	0.417745	-0.456112	-0.276486	-0.735531	3.405607	-64.418365	-122.956950
11838		8.644544	0.329946	4.306191	-0.189172	-0.292066	-0.023552	0.416805	-0.457535	-0.276509	-0.735172	3.360739	-64.586536	-123.022326
11839		8.660469	0.338745	4.333976	-0.190311	-0.290043	-0.019020	0.415881	-0.458958	-0.276512	-0.734807	3.309511	-64.753832	-123.081389
11840		8.666893	0.335506	4.286122	-0.192941	-0.289644	-0.014207	0.414968	-0.460390	-0.276493	-0.734435	3.251133	-64.920974	-123.134049
11841		8.750028	0.314620	4.317678	-0.184578	-0.283573	-0.016677	0.414072	-0.461778	-0.276497	-0.734068	3.199993	-65.084692	-123.189424
11842		8.784114	0.318027	4.289330	-0.168746	-0.277251	-0.017911	0.413215	-0.463106	-0.276549	-0.733694	3.159574	-65.244637	-123.246443
11843		8.804239	0.290838	4.259832	-0.154758	-0.273687	-0.025417	0.412367	-0.464381	-0.276660	-0.733323	3.135983	-65.402456	-123.313191
11844		8.858698	0.266363	4.272761	-0.150029	-0.266412	-0.023405	0.411548	-0.465621	-0.276769	-0.732956	3.112625	-65.556037	-123.376930
11845		8.876251	0.258365	4.273022	-0.145938	-0.261361	-0.023910	0.410742	-0.466833	-0.276883	-0.732594	3.091934	-65.706873	-123.441149
11846		8.928655	0.240551	4.159827	-0.145320	-0.253959	-0.023807	0.409946	-0.468014	-0.276983	-0.732248	3.071643	-65.853338	-123.505226
11847		8.930245	0.219033	4.188241	-0.152659	-0.259590	-0.019422	0.409141	-0.469238	-0.277057	-0.731887	3.041779	-66.003319	-123.563467
11848		8.853713	0.215140	4.138727	-0.157230	-0.263102	-0.011611	0.408347	-0.470492	-0.277102	-0.731508	2.999930	-66.155431	-123.611359
11849		8.809080	0.180084	4.049473	-0.140173	-0.261384	-0.001453	0.407633	-0.471720	-0.277182	-0.731086	2.954287	-66.307007	-123.644404
11850		8.732100	0.176043	4.000595	-0.117575	-0.262124	0.003649	0.406988	-0.472908	-0.277333	-0.730619	2.915256	-66.459025	-123.670449
11851		8.737371	0.156794	3.925490	-0.104625	-0.260282	0.011889	0.406406	-0.474076	-0.277508	-0.730120	2.872250	-66.610374	-123.684090
11852		8.705098	0.114697	3.883325	-0.083308	-0.254902	0.014431	0.405890	-0.475182	-0.277743	-0.729599	2.838021	-66.758576	-123.693963
11853		8.790216	0.098975	3.811536	-0.075817	-0.242873	0.014331	0.405408	-0.476229	-0.277980	-0.729093	2.806845	-66.900039	-123.702488
11854		8.900852	0.124809	3.817048	-0.084275	-0.238520	0.017522	0.404922	-0.477281	-0.278169	-0.728604	2.766380	-67.038993	-123.706313
11855		9.051140	0.097340	3.775189	-0.091953	-0.238634	0.021944	0.404434	-0.478354	-0.278320	-0.728113	2.714995	-67.178243	-123.702918
11856		9.094774	0.111275	3.824423	-0.082095	-0.233401	0.026667	0.403992	-0.479393	-0.278485	-0.727611	2.662441	-67.314496	-123.692175
11857		8.984604	-0.109262	2.637069	-0.062296	-0.195390	0.020909	0.403630	-0.480247	-0.278658	-0.727183	2.626125	-67.428965	-123.686704
11858		24.326373	-4.312112	2.473980	-0.565449	0.175585	-0.059967	0.402280	-0.480651	-0.276446	-0.728507	2.390077	-67.328931	-123.777209
11859		24.065637	-3.327286	1.644776	-2.124928	-0.391426	0.867606	0.399749	-0.487505	-0.267445	-0.728706	0.002713	-67.565745	-122.505695
11860		7.843751	2.580895	0.564210	-0.879448	0.274775	0.974006	0.401497	-0.489543	-0.261368	-0.728584	-1.825751	-67.401937	-121.067055
11861		11.136736	2.390614	0.686556	0.393760	0.504169	1.162427	0.407330	-0.488413	-0.258995	-0.726950	-3.141583	-67.086945	-119.390727
11862		8.596457	3.623961	1.851542	1.250899	0.600198	1.313716	0.415904	-0.485350	-0.259159	-0.724083	-4.119194	-66.698757	-117.543380
11863		6.478418	3.171342	1.813127	1.554218	0.428142	1.354118	0.425094	-0.482284	-0.260650	-0.720249	-4.952229	-66.395485	-115.659827
11864		6.120426	0.819756	1.740096	1.571131	0.352544	1.134360	0.433390	-0.479116	-0.262872	-0.716602	-5.466835	-66.138184	-114.109033
11865		7.782982	-1.413803	1.602328	1.301746	0.361880	0.845746	0.439985	-0.476082	-0.264773	-0.713900	-5.745095	-65.887226	-112.983277
11866		8.668718	-2.160439	1.681909	0.936964	0.597845	0.535136	0.444893	-0.472570	-0.265586	-0.712890	-5.791813	-65.518500	-112.337384
11867		7.907269	-1.408495	2.097481	0.576999	0.780412	0.319937	0.448411	-0.468910	-0.265202	-0.713245	-5.746002	-65.057946	-112.019017
11868		7.042246	-0.771387	2.146169	0.302120	0.838822	0.197267	0.450911	-0.465484	-0.263994	-0.714361	-5.695174	-64.571621	-111.878904
11869		6.784684	-0.637502	2.437488	0.138291	0.851586	0.129726	0.452800	-0.462284	-0.262319	-0.715859	-5.655955	-64.081483	-111.829593
11870		6.829105	-0.807014	2.859525	0.026742	0.828707	0.060730	0.454141	-0.459320	-0.260456	-0.717596	-5.601566	-63.608709	-111.868023
11871		6.985898	-1.231227	2.708168	-0.117403	0.782697	-0.048215	0.454698	-0.456698	-0.258421	-0.719649	-5.514151	-63.167775	-112.036079
11872		6.861340	-1.543131	2.756792	-0.307294	0.746437	-0.231523	0.454103	-0.454396	-0.256204	-0.722271	-5.338159	-62.757774	-112.426390
11873		7.301614	-1.654558	3.141943	-0.512869	0.707335	-0.429706	0.452270	-0.452436	-0.253775	-0.725501	-5.075923	-62.379221	-113.047932
11874		7.654144	-1.608921	3.442425	-0.668683	0.672351	-0.607782	0.449377	-0.450720	-0.251259	-0.729233	-4.724562	-62.028311	-113.873217
11875		7.629837	-1.344940	3.800996	-0.820012	0.643717	-0.786306	0.445444	-0.449205	-0.248645	-0.733465	-4.287688	-61.698667	-114.896404
11876		7.373259	-0.990924	4.469352	-0.966517	0.601908	-0.943704	0.440526	-0.447956	-0.245930	-0.738100	-3.788126	-61.395920	-116.089729
11877		5.397031	-0.499974	5.300787	-1.172587	0.542985	-1.185663	0.434157	-0.447047	-0.243108	-0.743340	-3.176319	-61.129206	-117.548632
11878		3.257837	0.882046	5.928281	-1.403031	0.405300	-1.345200	0.426474	-0.446919	-0.240067	-0.748833	-2.555533	-60.938695	-119.171739
11879		0.964481	2.749875	6.309249	-1.546663	0.274594	-1.368807	0.418182	-0.447511	-0.236792	-0.754180	-2.011313	-60.815209	-120.804057
11880		0.634622	4.115092	6.401380	-1.599218	0.082537	-1.274315	0.409856	-0.449004	-0.233484	-0.758880	-1.606740	-60.793820	-122.312189
11881		3.659975	4.652085	5.908409	-1.237577	-0.011425	-0.928269	0.403512	-0.450476	-0.230944	-0.762177	-1.352036	-60.816515	-123.411147
11882		6.248763	5.158218	5.425444	-0.211571	-0.048170	-0.228299	0.402101	-0.450811	-0.230807	-0.762767	-1.228076	-60.849377	-123.685890
11883		12.828952	2.725242	4.937007	1.711703	-0.237161	0.752730	0.408520	-0.449113	-0.236160	-0.758707	-1.014677	-60.979186	-122.802757
11884		21.244453	-0.167821	4.810513	3.974728	-0.336418	1.840716	0.423926	-0.444319	-0.247796	-0.749310	-0.637077	-61.158668	-120.625106
11885		24.063318	-3.293187	5.673788	4.359975	-0.300663	1.915701	0.440276	-0.438440	-0.260496	-0.738965	-0.128251	-61.325950	-118.350913
11886		16.897647	-5.169705	6.934900	2.841098	0.008887	0.990892	0.450118	-0.433378	-0.268832	-0.733012	0.474235	-61.324838	-117.175816
11887		9.676378	-4.546909	7.169125	0.852779	0.102036	0.258760	0.453029	-0.431414	-0.271219	-0.731496	0.703852	-61.270156	-116.875498
11888		6.515479	-1.993826	6.582883	-0.324088	0.124754	0.250639	0.453396	-0.432023	-0.269264	-0.731632	0.267627	-61.202726	-116.584898
11889		5.206544	-0.385956	6.164472	-0.827324	0.113307	0.023294	0.451825	-0.433498	-0.265983	-0.732931	-0.217913	-61.140111	-116.566695
11890		6.026918	0.310373	5.741384	-0.982000	0.081677	-0.177084	0.449124	-0.435171	-0.262633	-0.734805	-0.583648	-61.097160	-116.787726
11891		7.428817	0.791272	5.345611	-0.909384	0.039852	-0.135885	0.446676	-0.436870	-0.259550	-0.736382	-0.950488	-61.077733	-116.958821
11892		8.216634	1.198752	5.001672	-0.627994	-0.016454	0.003850	0.445271	-0.438329	-0.257319	-0.737149	-1.301959	-61.090054	-116.963999
11893		8.274047	1.194449	4.871010	-0.248510	-0.074815	0.060931	0.444836	-0.439223	-0.256491	-0.737168	-1.496842	-61.134467	-116.898984
11894		7.981718	0.822862	4.987288	0.055261	-0.119636	0.035874	0.444916	-0.439578	-0.256937	-0.736752	-1.493399	-61.205319	-116.862135
11895		7.865789	0.325018	5.046517	0.192523	-0.147317	-0.007932	0.445103	-0.439670	-0.258046	-0.736197	-1.365950	-61.292228	-116.876636
11896		8.101631	-0.050247	5.109320	0.175848	-0.164561	-0.032180	0.445135	-0.439834	-0.259184	-0.735679	-1.222704	-61.389810	-116.920637
11897		8.418538	-0.265762	5.030271	0.074797	-0.174145	-0.026963	0.444957	-0.440260	-0.259961	-0.735258	-1.142471	-61.492281	-116.958152
11898		8.635694	-0.360109	4.936898	-0.018945	-0.180979	-0.014754	0.444608	-0.440936	-0.260383	-0.734915	-1.128473	-61.598703	-116.981255
11899		8.671546	-0.306097	5.074860	-0.091996	-0.182341	-0.025379	0.444056	-0.441764	-0.260562	-0.734688	-1.145217	-61.705837	-117.017090
11900		8.570661	-0.266697	4.934759	-0.151997	-0.195503	-0.056513	0.443233	-0.442740	-0.260615	-0.734579	-1.163529	-61.821487	-117.091145
11901		8.404643	-0.194010	4.786400	-0.175018	-0.206951	-0.088929	0.442231	-0.443758	-0.260682	-0.734544	-1.160030	-61.943465	-117.203788
11902		8.304298	-0.102259	4.778522	-0.175973	-0.226192	-0.105950	0.441131	-0.444825	-0.260831	-0.734508	-1.136348	-62.076810	-117.339805
11903		8.196106	-0.105673	4.832286	-0.169262	-0.241689	-0.104081	0.440039	-0.445937	-0.261029	-0.734418	-1.112595	-62.218822	-117.471347
11904		8.200505	-0.082864	4.816918	-0.157129	-0.253102	-0.092358	0.438998	-0.447083	-0.261268	-0.734259	-1.094695	-62.367644	-117.588803
11905		8.309311	-0.087586	4.725022	-0.156348	-0.260521	-0.074877	0.438015	-0.448272	-0.261488	-0.734043	-1.094388	-62.520093	-117.685198
11906		8.490484	-0.113705	4.714651	-0.138569	-0.266604	-0.060050	0.437109	-0.449468	-0.261751	-0.733758	-1.099712	-62.676434	-117.764701
11907		8.659379	-0.113743	4.684429	-0.126453	-0.272669	-0.045700	0.436283	-0.450671	-0.262040	-0.733408	-1.113914	-62.835528	-117.825239
11908		8.710031	-0.152833	4.646706	-0.131419	-0.270623	-0.037908	0.435471	-0.451886	-0.262293	-0.733053	-1.137902	-62.993464	-117.877818
11909		8.624562	-0.167281	4.642016	-0.141717	-0.274103	-0.035932	0.434642	-0.453139	-0.262506	-0.732695	-1.171421	-63.153290	-117.926329
11910		8.624868	-0.187153	4.668924	-0.152146	-0.269472	-0.039183	0.433776	-0.454392	-0.262681	-0.732369	-1.205599	-63.310693	-117.980908
11911		8.576554	-0.196272	4.582165	-0.161579	-0.264239	-0.038580	0.432903	-0.455647	-0.262805	-0.732062	-1.247033	-63.464929	-118.033159
11912		8.593228	-0.161108	4.513935	-0.157393	-0.267253	-0.041618	0.432015	-0.456900	-0.262957	-0.731750	-1.281651	-63.621303	-118.090940
11913		8.554883	-0.177274	4.474478	-0.153271	-0.268868	-0.048642	0.431116	-0.458138	-0.263143	-0.731440	-1.306511	-63.778348	-118.156227
11914		8.486558	-0.178760	4.443975	-0.141253	-0.281410	-0.049084	0.430224	-0.459395	-0.263401	-0.731084	-1.323828	-63.942758	-118.222240
11915		8.484256	-0.211869	4.417733	-0.131566	-0.285670	-0.045096	0.429363	-0.460650	-0.263694	-0.730695	-1.340245	-64.109399	-118.282904
11916		8.527295	-0.228083	4.383172	-0.133147	-0.296676	-0.037841	0.428499	-0.461959	-0.263987	-0.730269	-1.364646	-64.282623	-118.336462
11917		8.568681	-0.226829	4.376635	-0.138057	-0.306700	-0.025963	0.427663	-0.463327	-0.264255	-0.729796	-1.407716	-64.461070	-118.371512
11918		8.552145	-0.217041	4.359597	-0.131363	-0.311546	-0.016114	0.426867	-0.464712	-0.264535	-0.729280	-1.458497	-64.642383	-118.394062
11919		8.595913	-0.235277	4.322453	-0.125148	-0.318703	-0.011523	0.426095	-0.466113	-0.264840	-0.728726	-1.512208	-64.827517	-118.409063
11920		8.702084	-0.248940	4.346703	-0.112835	-0.316814	-0.005367	0.425368	-0.467486	-0.265175	-0.728149	-1.564578	-65.011575	-118.417951
11921		8.732451	-0.316161	4.277592	-0.106788	-0.315827	-0.008759	0.424651	-0.468838	-0.265533	-0.727567	-1.611568	-65.195028	-118.428719
11922		8.744415	-0.301600	4.279005	-0.097985	-0.315448	-0.008685	0.423943	-0.470170	-0.265924	-0.726978	-1.651624	-65.378507	-118.442241
11923		8.729274	-0.309749	4.232332	-0.110537	-0.309396	-0.005921	0.423233	-0.471508	-0.266247	-0.726407	-1.704554	-65.558236	-118.448810
11924		8.751307	-0.278835	4.183274	-0.113035	-0.315759	0.000282	0.422523	-0.472880	-0.266563	-0.725812	-1.765278	-65.741565	-118.448588
11925		8.824134	-0.235266	4.148659	-0.118072	-0.309652	-0.001025	0.421811	-0.474239	-0.266846	-0.725236	-1.829514	-65.921358	-118.447477
11926		8.794511	-0.217617	4.085469	-0.109526	-0.306415	0.004364	0.421134	-0.475576	-0.267139	-0.724645	-1.895416	-66.099460	-118.439828
11927		8.855856	-0.173433	4.131561	-0.099080	-0.301838	0.006671	0.420503	-0.476874	-0.267455	-0.724041	-1.959357	-66.274630	-118.427148
11928		8.884032	-0.164582	4.077425	-0.081421	-0.291640	0.004813	0.419919	-0.478089	-0.267822	-0.723443	-2.008820	-66.443765	-118.418674
11929		8.951357	-0.199308	4.133194	-0.074342	-0.284696	-0.002998	0.419333	-0.479258	-0.268214	-0.722864	-2.045930	-66.609305	-118.419826
11930		8.969383	-0.206744	4.131171	-0.074167	-0.272853	0.001239	0.418771	-0.480385	-0.268574	-0.722308	-2.085698	-66.767902	-118.417955
11931		8.913826	-0.159942	4.135546	-0.072425	-0.266141	-0.001542	0.418218	-0.481483	-0.268929	-0.721765	-2.123251	-66.922789	-118.417427
11932		8.864967	-0.211358	4.119903	-0.072008	-0.257126	0.002611	0.417689	-0.482549	-0.269260	-0.721236	-2.164242	-67.072294	-118.412635
11933		8.875377	-0.214526	4.097263	-0.068968	-0.249964	0.003530	0.417183	-0.483586	-0.269580	-0.720714	-2.206391	-67.217807	-118.404973
11934		8.886007	-0.235572	4.045536	-0.064875	-0.246204	0.006904	0.416694	-0.484605	-0.269900	-0.720193	-2.248873	-67.361227	-118.395011
11935		8.852625	-0.216020	3.989177	-0.063744	-0.241711	0.006865	0.416222	-0.485605	-0.270213	-0.719675	-2.292795	-67.501935	-118.382204
11936		8.883216	-0.250694	4.007037	-0.063678	-0.240475	0.008403	0.415752	-0.486596	-0.270525	-0.719160	-2.336033	-67.641658	-118.369775
11937		8.885217	-0.214554	4.021850	-0.089582	-0.236991	0.012799	0.415243	-0.487639	-0.270719	-0.718674	-2.403529	-67.779514	-118.347514
11938		8.844082	-0.174343	3.973003	-0.096030	-0.239196	0.015774	0.414722	-0.488705	-0.270889	-0.718186	-2.478470	-67.918564	-118.321441
11939		8.846482	-0.175051	3.928751	-0.103895	-0.239091	0.015035	0.414183	-0.489787	-0.271030	-0.717707	-2.558636	-68.057543	-118.294402
11940		8.878077	-0.154228	3.931705	-0.106924	-0.243719	0.017320	0.413631	-0.490894	-0.271165	-0.717219	-2.643371	-68.199180	-118.264808
11941		8.894893	-0.164592	3.932466	-0.105318	-0.250300	0.017275	0.413079	-0.492020	-0.271318	-0.716707	-2.729710	-68.344485	-118.232057
11942		8.911838	-0.192313	3.903116	-0.095592	-0.251895	0.015389	0.412533	-0.493126	-0.271516	-0.716186	-2.806031	-68.490717	-118.204482
11943		8.921811	-0.179289	3.910114	-0.090177	-0.253193	0.006390	0.411974	-0.494214	-0.271755	-0.715667	-2.869472	-68.637954	-118.187077
11944		8.975341	-0.223877	3.891055	-0.088110	-0.252074	0.003481	0.411412	-0.495282	-0.272012	-0.715154	-2.925474	-68.784199	-118.175564
11945		9.021585	-0.223145	3.805343	-0.100572	-0.243373	0.001099	0.410820	-0.496348	-0.272206	-0.714681	-2.987326	-68.925959	-118.166283
11946		9.008094	-0.270590	3.728584	-0.098499	-0.254369	-0.003043	0.410199	-0.497439	-0.272442	-0.714189	-3.041102	-69.073993	-118.164394
11947		8.987501	-0.295599	3.658221	-0.113917	-0.257022	-0.004572	0.409534	-0.498572	-0.272629	-0.713710	-3.104070	-69.223730	-118.162119
11948		8.996912	-0.299843	3.634666	-0.122466	-0.259061	0.003096	0.408864	-0.499734	-0.272775	-0.713225	-3.180882	-69.374207	-118.150335
11949		9.050634	-0.287179	3.599554	-0.130691	-0.265473	0.001354	0.408165	-0.500937	-0.272903	-0.712733	-3.264310	-69.528584	-118.136478
11950		9.082968	-0.266286	3.599280	-0.142331	-0.266720	0.005772	0.407446	-0.502169	-0.272984	-0.712245	-3.360060	-69.683353	-118.116577
11951		9.135611	-0.330221	3.546982	-0.148783	-0.274348	0.009072	0.406715	-0.503449	-0.273046	-0.711736	-3.468267	-69.842526	-118.087386
11952		9.174389	-0.349695	3.508165	-0.148322	-0.280206	0.006688	0.405958	-0.504743	-0.273128	-0.711220	-3.571559	-70.005120	-118.063791
11953		9.242543	-0.324273	3.441864	-0.152936	-0.285163	0.005531	0.405188	-0.506062	-0.273204	-0.710693	-3.679745	-70.170567	-118.037214
11954		9.180396	-0.316953	3.469526	-0.165709	-0.288428	0.002326	0.404361	-0.507411	-0.273251	-0.710184	-3.789439	-70.337924	-118.017248
11955		9.198342	-0.328084	3.465020	-0.182447	-0.287560	-0.001259	0.403485	-0.508786	-0.273243	-0.709700	-3.906145	-70.504966	-117.999631
11956		9.294739	-0.374837	3.397976	-0.203910	-0.281982	-0.002333	0.402551	-0.510177	-0.273154	-0.709267	-4.030206	-70.668584	-117.987262
11957		9.208006	-0.302811	3.132018	-0.207528	-0.275496	0.000264	0.401632	-0.511559	-0.273028	-0.708841	-4.164748	-70.828641	-117.966008
11958		9.078472	-0.330312	2.964729	-0.214225	-0.291178	-0.001457	0.400663	-0.513003	-0.272915	-0.708389	-4.301575	-70.997519	-117.946397
11959		8.994193	-0.390522	3.011366	-0.188694	-0.316198	-0.005824	0.399712	-0.514480	-0.272950	-0.707841	-4.422902	-71.181061	-117.927750
11960		8.953235	-0.390836	3.001639	-0.163243	-0.327601	-0.004990	0.398808	-0.515940	-0.273100	-0.707230	-4.530600	-71.370781	-117.907973
11961		8.916245	-0.387691	2.909998	-0.149372	-0.348465	-0.010525	0.397895	-0.517443	-0.273349	-0.706550	-4.628256	-71.572942	-117.890570
11962		8.990477	-0.439411	2.841719	-0.153236	-0.360896	-0.018278	0.396919	-0.518982	-0.273630	-0.705860	-4.715288	-71.782459	-117.887050
11963		9.188383	-0.459939	2.865332	-0.163377	-0.378338	-0.022893	0.395882	-0.520597	-0.273919	-0.705141	-4.806084	-72.002247	-117.885351
11964		9.308543	-0.417901	2.797767	-0.170402	-0.384504	-0.028429	0.394790	-0.522236	-0.274211	-0.704429	-4.890079	-72.225719	-117.895423
11965		9.450059	-0.366978	2.723197	-0.182651	-0.374654	-0.023306	0.393702	-0.523871	-0.274423	-0.703740	-4.992827	-72.443421	-117.892774
11966		9.531942	-0.306271	2.647383	-0.188140	-0.371106	-0.029374	0.392580	-0.525490	-0.274627	-0.703080	-5.086185	-72.659180	-117.903165
11967		9.552891	-0.296981	2.664174	-0.179211	-0.361518	-0.036797	0.391469	-0.527049	-0.274859	-0.702442	-5.162283	-72.870073	-117.926362
11968		9.575612	-0.341653	2.613003	-0.158623	-0.353361	-0.043431	0.390389	-0.528524	-0.275167	-0.701814	-5.208863	-73.076527	-117.968490
11969		9.541408	-0.358651	2.592512	-0.130541	-0.342424	-0.055018	0.389365	-0.529891	-0.275578	-0.701189	-5.219923	-73.277485	-118.030449
11970		9.568709	-0.367630	2.603265	-0.118220	-0.341901	-0.059374	0.388349	-0.531221	-0.276046	-0.700563	-5.209930	-73.478209	-118.107340
11971		9.593879	-0.388758	2.503232	-0.126622	-0.330740	-0.059440	0.387334	-0.532531	-0.276458	-0.699967	-5.206525	-73.672728	-118.181909
11972		9.592912	-0.380317	2.449680	-0.127573	-0.319495	-0.064361	0.386307	-0.533790	-0.276861	-0.699416	-5.187505	-73.860905	-118.273369
11973		9.622423	-0.368294	2.412008	-0.131518	-0.311435	-0.062958	0.385292	-0.535034	-0.277226	-0.698881	-5.174357	-74.044580	-118.360854
11974		9.662807	-0.282798	2.334879	-0.124280	-0.297692	-0.062223	0.384313	-0.536209	-0.277592	-0.698373	-5.151850	-74.220083	-118.453374
11975		9.715324	-0.240938	2.241944	-0.126425	-0.282751	-0.061538	0.383354	-0.537342	-0.277915	-0.697902	-5.130993	-74.387300	-118.545681
11976		9.680730	-0.180659	2.247832	-0.117612	-0.268932	-0.070870	0.382401	-0.538390	-0.278270	-0.697475	-5.079239	-74.546859	-118.664522
11977		9.637339	-0.172428	2.244935	-0.116047	-0.259489	-0.079366	0.381437	-0.539394	-0.278631	-0.697083	-5.008187	-74.701654	-118.802576
11978		9.578735	-0.194480	2.241850	-0.091206	-0.245916	-0.082700	0.380543	-0.540296	-0.279062	-0.696701	-4.909048	-74.848758	-118.955101
11979		9.571299	-0.198645	2.166287	-0.077010	-0.242449	-0.084051	0.379691	-0.541157	-0.279538	-0.696306	-4.797978	-74.993929	-119.111242
11980		9.604333	-0.205023	2.127825	-0.075626	-0.223077	-0.080607	0.378877	-0.541950	-0.279975	-0.695957	-4.685205	-75.127698	-119.268281
11981		9.674652	-0.229950	2.095983	-0.077016	-0.215363	-0.078801	0.378080	-0.542723	-0.280384	-0.695623	-4.575716	-75.257000	-119.422594
11982		9.665774	-0.234312	2.023888	-0.077235	-0.197549	-0.074899	0.377318	-0.543438	-0.280750	-0.695332	-4.468005	-75.375822	-119.575120
11983		9.689108	-0.214655	1.916967	-0.070295	-0.187366	-0.067593	0.376616	-0.544114	-0.281099	-0.695042	-4.370143	-75.488489	-119.713272
11984		9.664324	-0.164075	2.035332	-0.057058	-0.181755	-0.067559	0.375954	-0.544746	-0.281483	-0.694750	-4.260747	-75.597940	-119.855680
11985		9.623635	-0.118440	2.022745	-0.056362	-0.155230	-0.071033	0.375323	-0.545280	-0.281829	-0.694533	-4.138195	-75.692254	-120.010946
11986		9.604155	-0.096052	1.884454	-0.047010	-0.146777	-0.067236	0.374741	-0.545770	-0.282181	-0.694318	-4.014934	-75.781500	-120.161290
11987		9.592149	-0.120976	1.868827	-0.020192	-0.146750	-0.075420	0.374205	-0.546199	-0.282648	-0.694081	-3.856686	-75.870961	-120.331872
11988		9.592965	-0.155806	1.955721	0.002705	-0.141163	-0.079848	0.373722	-0.546559	-0.283197	-0.693833	-3.671952	-75.957324	-120.516132
11989		9.612367	-0.175435	1.955101	0.025585	-0.131375	-0.080338	0.373315	-0.546841	-0.283807	-0.693581	-3.469609	-76.037901	-120.705001
11990		9.591879	-0.117854	1.939403	0.031673	-0.124774	-0.079617	0.372935	-0.547089	-0.284424	-0.693337	-3.261799	-76.114572	-120.895808
11991		9.587845	-0.087755	1.936818	0.024443	-0.117154	-0.082938	0.372535	-0.547320	-0.285010	-0.693129	-3.047781	-76.186761	-121.097250
11992		9.636337	-0.044765	1.940748	0.014801	-0.117132	-0.078504	0.372125	-0.547574	-0.285552	-0.692926	-2.847210	-76.258678	-121.290307
11993		9.632076	-0.015079	1.938860	0.020388	-0.108851	-0.079072	0.371739	-0.547788	-0.286098	-0.692738	-2.639432	-76.325661	-121.487596
11994		9.628147	0.035859	1.887323	0.035455	-0.101735	-0.079866	0.371401	-0.547949	-0.286686	-0.692549	-2.418280	-76.388516	-121.689635
11995		9.629906	0.043941	1.878158	0.055508	-0.088252	-0.070222	0.371171	-0.548038	-0.287290	-0.692351	-2.205483	-76.443148	-121.871282
11996		9.677569	0.087281	1.884896	0.075653	-0.080765	-0.076711	0.370983	-0.548057	-0.287968	-0.692156	-1.963180	-76.493641	-122.071523
11997		9.710104	0.079057	1.941445	0.075663	-0.072668	-0.076919	0.370807	-0.548045	-0.288632	-0.691983	-1.718411	-76.539119	-122.274096
11998		9.719166	0.120017	1.995183	0.064494	-0.067636	-0.076245	0.370610	-0.548038	-0.289247	-0.691838	-1.479896	-76.581626	-122.476618
11999		9.716438	0.112057	1.958709	0.047211	-0.058120	-0.068398	0.370407	-0.548040	-0.289761	-0.691729	-1.268253	-76.618268	-122.661826
12000		9.672820	0.158913	1.957730	0.042201	-0.050409	-0.062995	0.370218	-0.548034	-0.290230	-0.691639	-1.070798	-76.650440	-122.835375
12001		9.639481	0.199191	1.978777	0.033814	-0.044241	-0.052423	0.370053	-0.548036	-0.290629	-0.691558	-0.902915	-76.678682	-122.983449
12002		9.606081	0.259402	1.950277	0.036683	-0.031130	-0.046992	0.369933	-0.547996	-0.290999	-0.691498	-0.745366	-76.699449	-123.119153
12003		9.575045	0.260922	1.933616	0.042238	-0.032427	-0.051381	0.369811	-0.547943	-0.291402	-0.691435	-0.573662	-76.720721	-123.266166
12004		9.585989	0.261308	1.951848	0.046155	-0.029870	-0.055392	0.369690	-0.547869	-0.291826	-0.691380	-0.389071	-76.740600	-123.423997
12005		9.565357	0.257806	1.956875	0.043371	-0.026521	-0.053268	0.369573	-0.547790	-0.292227	-0.691335	-0.211048	-76.758281	-123.576811
12006		9.544722	0.253896	1.962035	0.035529	-0.027741	-0.049393	0.369447	-0.547737	-0.292594	-0.691290	-0.046196	-76.776716	-123.720566
12007		9.570038	0.284861	1.981858	0.029971	-0.023747	-0.045077	0.369326	-0.547685	-0.292921	-0.691257	0.105005	-76.792608	-123.853692
12008		9.549365	0.280078	1.987361	0.026611	-0.024101	-0.043999	0.369199	-0.547644	-0.293235	-0.691225	0.252095	-76.808833	-123.984468
12009		9.560186	0.279102	2.006611	0.016086	-0.018129	-0.042273	0.369058	-0.547603	-0.293496	-0.691222	0.389059	-76.821361	-124.111126
12010		9.553771	0.305108	2.013909	0.008880	-0.014486	-0.041502	0.368904	-0.547564	-0.293725	-0.691237	0.520646	-76.831933	-124.236416
12011		9.592042	0.291371	2.017371	0.003364	-0.007816	-0.037315	0.368760	-0.547518	-0.293909	-0.691272	0.638356	-76.838450	-124.350777
12012		9.567220	0.268987	1.994182	0.002773	-0.010003	-0.034333	0.368622	-0.547485	-0.294089	-0.691295	0.748876	-76.846397	-124.457962
12013		9.577936	0.246103	2.065187	0.001672	-0.007830	-0.032714	0.368489	-0.547449	-0.294255	-0.691324	0.854567	-76.852857	-124.560969
12014		9.560807	0.276476	2.052069	-0.002213	-0.006516	-0.032897	0.368347	-0.547416	-0.294406	-0.691362	0.958854	-76.858772	-124.664798
12015		9.578026	0.252139	2.064041	-0.010535	-0.003398	-0.030407	0.368195	-0.547391	-0.294516	-0.691416	1.051886	-76.862634	-124.761982
12016		9.550484	0.246047	2.131100	-0.018882	-0.002966	-0.027805	0.368030	-0.547384	-0.294589	-0.691478	1.133868	-76.866494	-124.852615
12017		9.539923	0.253589	2.109584	-0.029453	-0.002385	-0.025864	0.367844	-0.547396	-0.294619	-0.691555	1.204957	-76.869765	-124.938394
12018		9.539875	0.255306	2.109594	-0.032215	0.000947	-0.023768	0.367662	-0.547406	-0.294628	-0.691640	1.269471	-76.871375	-125.018947
12019		9.556881	0.249892	2.071780	-0.035551	0.003587	-0.014699	0.367507	-0.547425	-0.294595	-0.691721	1.309367	-76.871328	-125.076283
12020		9.567371	0.245142	2.093303	-0.036708	-0.001114	-0.016857	0.367334	-0.547460	-0.294574	-0.691794	1.354516	-76.874167	-125.139533
12021		9.539799	0.237277	2.160727	-0.036692	0.001574	-0.016959	0.367165	-0.547485	-0.294547	-0.691876	1.399441	-76.875222	-125.202705
12022		9.567380	0.225826	2.144218	-0.042261	0.002860	-0.012548	0.366996	-0.547523	-0.294488	-0.691961	1.431001	-76.875831	-125.255384
12023		9.553874	0.269537	2.162615	-0.042248	0.005550	-0.012647	0.366832	-0.547550	-0.294422	-0.692054	1.461914	-76.874654	-125.307435
12024		9.552819	0.195135	2.144324	-0.035002	0.007297	-0.013629	0.366687	-0.547558	-0.294383	-0.692141	1.499819	-76.872687	-125.362274
12025		9.524926	0.207396	2.162107	-0.040551	0.011266	-0.009324	0.366548	-0.547568	-0.294304	-0.692241	1.523148	-76.868274	-125.405541
12026		9.545644	0.217182	2.155365	-0.041124	0.010261	-0.010453	0.366401	-0.547581	-0.294229	-0.692340	1.549439	-76.864646	-125.452024
12027		9.573187	0.184315	2.190159	-0.047806	0.012214	-0.008418	0.366247	-0.547602	-0.294120	-0.692452	1.566283	-76.859695	-125.492900
12028		9.607357	0.150187	2.165329	-0.047310	0.006661	-0.002953	0.366104	-0.547650	-0.294010	-0.692536	1.570775	-76.858258	-125.520663
12029		9.583312	0.177399	2.213408	-0.048400	0.011518	-0.001426	0.365971	-0.547684	-0.293882	-0.692633	1.570152	-76.853815	-125.543954
12030		9.610727	0.164335	2.197825	-0.046177	0.012862	0.003244	0.365861	-0.547718	-0.293748	-0.692722	1.559758	-76.848913	-125.555750
12031		9.620965	0.157399	2.220545	-0.041710	0.015247	0.004465	0.365772	-0.547736	-0.293619	-0.692809	1.548270	-76.842427	-125.563947
12032		9.574756	0.141530	2.156976	-0.036139	0.015466	0.004063	0.365697	-0.547743	-0.293513	-0.692888	1.541618	-76.836037	-125.573691
12033		9.560252	0.088488	2.207651	-0.018287	0.015145	-0.002892	0.365647	-0.547708	-0.293486	-0.692954	1.561562	-76.829495	-125.600387
12034		9.538828	0.099364	2.166647	-0.019951	0.017795	0.001597	0.365611	-0.547673	-0.293438	-0.693020	1.569935	-76.821722	-125.615960
12035		9.517571	0.067930	2.226403	-0.023327	0.014741	0.002768	0.365566	-0.547657	-0.293379	-0.693082	1.573138	-76.815498	-125.628428
12036		9.527747	0.082561	2.198543	-0.019454	0.010742	0.003044	0.365526	-0.547649	-0.293341	-0.693125	1.578375	-76.811846	-125.640581
12037		9.527528	0.081648	2.199526	-0.019473	0.009544	0.007149	0.365499	-0.547650	-0.293293	-0.693159	1.573418	-76.808667	-125.642402
12038		9.474919	0.045477	2.244979	-0.017826	0.007187	0.010770	0.365486	-0.547661	-0.293247	-0.693176	1.561520	-76.807077	-125.635852
12039		9.477625	0.027417	2.155884	-0.015598	0.007033	0.011428	0.365480	-0.547670	-0.293205	-0.693190	1.548501	-76.805403	-125.627111
12040		9.502277	0.051810	2.179085	-0.016163	0.006029	0.010290	0.365468	-0.547682	-0.293169	-0.693202	1.538755	-76.804478	-125.621809
12041		9.487830	0.018805	2.178569	-0.021728	0.009992	0.014612	0.365461	-0.547697	-0.293091	-0.693227	1.514260	-76.801157	-125.604888
12042		9.501947	0.048294	2.180609	-0.021209	0.005624	0.015952	0.365454	-0.547728	-0.293022	-0.693235	1.487436	-76.800619	-125.585134
12043		9.480866	0.057736	2.138338	-0.022359	0.000928	0.013771	0.365429	-0.547774	-0.292961	-0.693238	1.465219	-76.802473	-125.570924
12044		9.463641	0.062102	2.176679	-0.025697	0.003250	0.014747	0.365401	-0.547821	-0.292884	-0.693249	1.439066	-76.803271	-125.554538
12045		9.425416	0.077859	2.172387	-0.022929	-0.000073	0.012637	0.365370	-0.547869	-0.292826	-0.693251	1.419345	-76.805681	-125.543227
12046		9.439701	0.128648	2.123445	-0.026831	0.001245	0.012473	0.365328	-0.547921	-0.292755	-0.693262	1.398459	-76.807543	-125.532822
12047		9.454035	0.137317	2.175136	-0.030756	-0.001609	0.008398	0.365258	-0.547983	-0.292684	-0.693280	1.384692	-76.810771	-125.532233
12048		9.475071	0.145702	2.167308	-0.031866	-0.000927	0.006024	0.365176	-0.548042	-0.292617	-0.693305	1.377033	-76.813818	-125.538555
12049		9.530505	0.099668	2.183798	-0.027408	-0.002724	0.003327	0.365096	-0.548095	-0.292574	-0.693324	1.377645	-76.817615	-125.550764
12050		9.523013	0.088329	2.072043	-0.009035	-0.011323	0.001871	0.365047	-0.548143	-0.292616	-0.693294	1.393228	-76.826626	-125.567544
12051		9.495573	0.079311	2.138168	0.005524	-0.010821	-0.008151	0.365006	-0.548146	-0.292733	-0.693263	1.441324	-76.834896	-125.609141
12052		9.527345	0.063201	2.200923	-0.004534	-0.012197	-0.013046	0.364916	-0.548167	-0.292833	-0.693251	1.496542	-76.844134	-125.663914
12053		9.660202	0.015892	2.346219	-0.046880	0.004791	-0.009697	0.364749	-0.548210	-0.292745	-0.693343	1.517490	-76.843424	-125.708463
12054		9.648365	0.030801	2.105379	-0.056859	0.021582	0.005090	0.364628	-0.548235	-0.292553	-0.693468	1.496359	-76.833541	-125.715559
12055		9.575383	0.101090	2.078492	-0.057502	0.015486	0.012265	0.364523	-0.548292	-0.292348	-0.693564	1.456744	-76.827035	-125.704162
12056		9.560886	0.024705	2.178677	-0.050337	0.005269	0.015748	0.364435	-0.548377	-0.292179	-0.693614	1.413776	-76.826675	-125.684871
12057		9.504402	-0.049792	2.243721	-0.038549	0.010582	0.011859	0.364374	-0.548416	-0.292050	-0.693670	1.386349	-76.822969	-125.674837
12058		9.468791	-0.050448	2.150734	-0.041314	0.016598	0.013904	0.364320	-0.548443	-0.291896	-0.693742	1.352575	-76.816099	-125.659781
12059		9.461771	-0.052201	2.211491	-0.034638	0.011955	0.011943	0.364271	-0.548470	-0.291778	-0.693796	1.327130	-76.811606	-125.649482
12060		9.502600	-0.109045	2.177206	-0.029630	0.008473	0.010470	0.364225	-0.548499	-0.291689	-0.693835	1.309183	-76.809308	-125.643775
12061		9.510046	-0.057689	2.188655	-0.031871	0.008635	0.009825	0.364172	-0.548529	-0.291592	-0.693879	1.290700	-76.806688	-125.638998
12062		9.517415	-0.027510	2.250563	-0.031831	0.012537	0.005640	0.364110	-0.548540	-0.291503	-0.693941	1.283350	-76.801940	-125.645351
12063		9.471402	-0.021546	2.136207	-0.035770	0.012650	0.009594	0.364051	-0.548563	-0.291385	-0.694003	1.262989	-76.797016	-125.640940
12064		9.495909	0.002427	2.160334	-0.032389	0.015705	0.008436	0.364001	-0.548569	-0.291280	-0.694069	1.247977	-76.790558	-125.639889
12065		9.499403	0.016819	2.192130	-0.025139	0.012058	0.007605	0.363964	-0.548572	-0.291206	-0.694117	1.238607	-76.785949	-125.640510
12066		9.522968	-0.033561	2.196142	-0.015631	0.012410	0.011348	0.363966	-0.548563	-0.291156	-0.694144	1.225917	-76.781421	-125.631869
12067		9.536964	-0.024783	2.249011	-0.010024	0.011137	0.006905	0.363966	-0.548540	-0.291138	-0.694169	1.226966	-76.777330	-125.634297
12068		9.553861	-0.031974	2.212288	-0.015030	0.018788	0.012326	0.363982	-0.548509	-0.291077	-0.694211	1.212218	-76.769147	-125.623258
12069		9.524720	-0.096300	2.211065	-0.018382	0.021115	0.013322	0.363996	-0.548477	-0.290994	-0.694264	1.192345	-76.759418	-125.609112
12070		9.570070	-0.062923	2.228264	-0.024562	0.021392	0.016628	0.364006	-0.548460	-0.290883	-0.694318	1.161233	-76.749799	-125.586772
12071		9.601105	-0.039822	2.194134	-0.020602	0.029607	0.020553	0.364051	-0.548413	-0.290757	-0.694384	1.122163	-76.735285	-125.554209
12072		9.583163	-0.036235	2.235169	-0.016677	0.030971	0.020630	0.364109	-0.548355	-0.290645	-0.694447	1.085708	-76.720236	-125.521901
12073		9.550920	-0.042597	2.224771	-0.021690	0.037155	0.022048	0.364168	-0.548286	-0.290497	-0.694533	1.042210	-76.701404	-125.485425
12074		9.533020	-0.017404	2.216135	-0.012168	0.034553	0.017763	0.364234	-0.548203	-0.290401	-0.694604	1.014959	-76.684289	-125.459886
12075		9.538841	-0.041617	2.210527	-0.017801	0.041469	0.030182	0.364337	-0.548124	-0.290238	-0.694680	0.954052	-76.663053	-125.403223
12076		9.534970	-0.007395	2.254274	-0.015544	0.042526	0.026743	0.364437	-0.548033	-0.290090	-0.694761	0.902764	-76.641477	-125.354973
12077		9.481470	-0.023988	2.252292	-0.012199	0.044363	0.029704	0.364559	-0.547932	-0.289942	-0.694839	0.846470	-76.618554	-125.299743
12078		9.514846	-0.060601	2.230494	-0.007179	0.045036	0.032170	0.364703	-0.547825	-0.289805	-0.694905	0.787935	-76.595493	-125.239138
12079		9.517866	-0.026509	2.215149	-0.001582	0.045233	0.031762	0.364862	-0.547705	-0.289686	-0.694966	0.733138	-76.572062	-125.179183
12080		9.513135	-0.044898	2.189011	0.007429	0.047005	0.026176	0.365028	-0.547556	-0.289612	-0.695027	0.697135	-76.547873	-125.133198
12081		9.505511	-0.025831	2.202384	0.009572	0.040246	0.031101	0.365208	-0.547431	-0.289543	-0.695059	0.650805	-76.527275	-125.075366
12082		9.483751	-0.007101	2.334458	-0.004442	0.045895	0.034024	0.365367	-0.547319	-0.289408	-0.695120	0.589825	-76.503719	-125.010627
12083		9.500601	0.004897	2.250391	-0.002284	0.041826	0.038875	0.365544	-0.547222	-0.289274	-0.695159	0.518497	-76.482229	-124.934061
12084		9.464985	0.003237	2.160157	0.008378	0.048066	0.040784	0.365765	-0.547088	-0.289161	-0.695195	0.449273	-76.457413	-124.853266
12085		9.453302	-0.015831	2.192801	0.027313	0.032316	0.040663	0.366015	-0.546973	-0.289142	-0.695162	0.391275	-76.441338	-124.772955
12086		9.486632	-0.042672	2.340367	0.025580	0.028108	0.041327	0.366256	-0.546877	-0.289125	-0.695118	0.331685	-76.427877	-124.691873
12087		9.433926	-0.037856	2.286742	0.025048	0.032497	0.040039	0.366498	-0.546764	-0.289099	-0.695090	0.274181	-76.411659	-124.613395
12088		9.458529	0.005662	2.262703	0.017745	0.033488	0.040962	0.366724	-0.546662	-0.289047	-0.695073	0.211568	-76.395013	-124.533699
12089		9.495854	-0.015567	2.270293	0.011579	0.028139	0.036272	0.366910	-0.546584	-0.288993	-0.695059	0.155617	-76.381246	-124.464749
12090		9.498871	-0.002989	2.303426	0.015480	0.026803	0.036445	0.367105	-0.546503	-0.288956	-0.695034	0.102114	-76.368451	-124.395775
12091		9.506203	0.046714	2.316787	0.016557	0.026117	0.038841	0.367311	-0.546426	-0.288916	-0.695003	0.043196	-76.355813	-124.320829
12092		9.457426	0.067299	2.292988	0.022667	0.021918	0.039752	0.367530	-0.546355	-0.288904	-0.694948	-0.013581	-76.345768	-124.244242
12093		9.501495	0.024531	2.290756	0.028283	0.024794	0.039285	0.367767	-0.546261	-0.288906	-0.694895	-0.066603	-76.333853	-124.168442
12094		9.489986	0.006040	2.321981	0.027184	0.025489	0.036913	0.367994	-0.546165	-0.288911	-0.694849	-0.114062	-76.321744	-124.098757
12095		9.506959	-0.002998	2.286296	0.024919	0.022972	0.036338	0.368209	-0.546080	-0.288913	-0.694801	-0.161871	-76.310847	-124.030298
12096		9.474281	-0.030847	2.324824	0.026053	0.023496	0.034625	0.368421	-0.545989	-0.288923	-0.694755	-0.204831	-76.299927	-123.966044
12097		9.459182	-0.065035	2.325097	0.015870	0.017074	0.037974	0.368609	-0.545944	-0.288899	-0.694702	-0.261547	-76.292378	-123.893748
12098		9.473371	-0.037064	2.328439	0.011954	0.018422	0.037814	0.368787	-0.545901	-0.288862	-0.694656	-0.319824	-76.284289	-123.821934
12099		9.505136	-0.015642	2.293812	0.006273	0.017046	0.042338	0.368963	-0.545880	-0.288793	-0.694608	-0.392133	-76.276705	-123.739242
12100		9.501860	0.018167	2.334930	0.005756	0.014560	0.037147	0.369116	-0.545862	-0.288742	-0.694562	-0.452384	-76.270825	-123.669175
12101		9.497933	-0.001047	2.305613	0.004026	0.010352	0.037797	0.369260	-0.545861	-0.288690	-0.694507	-0.515326	-76.267054	-123.597448
12102		9.448770	-0.001809	2.330522	0.005144	0.008178	0.036152	0.369399	-0.545864	-0.288652	-0.694447	-0.573376	-76.264762	-123.529944
12103		9.459651	0.010470	2.302300	0.005711	0.005001	0.033347	0.369525	-0.545873	-0.288628	-0.694383	-0.624997	-76.264049	-123.468876
12104		9.455882	-0.008233	2.272291	0.009084	0.005345	0.032291	0.369657	-0.545873	-0.288620	-0.694316	-0.671867	-76.263389	-123.410582
12105		9.487191	-0.007388	2.286540	-0.000959	0.001344	0.027389	0.369738	-0.545898	-0.288595	-0.694264	-0.713442	-76.264789	-123.363789
12106		9.480716	0.011907	2.295505	0.005192	-0.004361	0.024258	0.369818	-0.545927	-0.288613	-0.694191	-0.744027	-76.269729	-123.324548
12107		9.508527	-0.002836	2.278589	-0.008298	-0.003028	0.028435	0.369877	-0.545982	-0.288569	-0.694134	-0.792431	-76.273611	-123.275055
12108		9.487357	-0.014939	2.285816	-0.000394	-0.001833	0.024586	0.369945	-0.546014	-0.288561	-0.694076	-0.827040	-76.277103	-123.235005
12109		9.497595	-0.023072	2.306887	-0.002051	-0.004838	0.021109	0.369993	-0.546053	-0.288562	-0.694019	-0.854785	-76.282068	-123.203094
12110		9.518950	-0.015463	2.298889	0.000223	-0.006502	0.017728	0.370034	-0.546090	-0.288585	-0.693960	-0.872921	-76.288238	-123.179499
12111		9.499751	-0.085395	2.316423	0.004151	-0.005161	0.017827	0.370087	-0.546114	-0.288616	-0.693899	-0.889458	-76.293412	-123.155470
12112		9.532152	-0.061883	2.279619	0.008129	-0.005311	0.013876	0.370138	-0.546126	-0.288675	-0.693838	-0.894183	-76.298940	-123.140985
12113		9.521190	-0.078882	2.307995	-0.004285	-0.004658	0.020451	0.370178	-0.546167	-0.288669	-0.693787	-0.921731	-76.303800	-123.110599
12114		9.528678	-0.080960	2.248094	0.000817	-0.006988	0.014845	0.370208	-0.546200	-0.288702	-0.693731	-0.932720	-76.310287	-123.094176
12115		9.542653	-0.072993	2.299463	-0.011570	-0.003640	0.021347	0.370232	-0.546253	-0.288667	-0.693691	-0.966549	-76.314550	-123.061622
12116		9.511260	-0.078801	2.285430	-0.007062	0.001395	0.022532	0.370282	-0.546282	-0.288637	-0.693654	-0.999813	-76.316097	-123.026611
12117		9.521399	-0.086963	2.306845	-0.008167	-0.000608	0.020213	0.370316	-0.546316	-0.288611	-0.693619	-1.028930	-76.318626	-122.996901
12118		9.494578	-0.055259	2.273300	-0.003608	0.002934	0.017346	0.370357	-0.546327	-0.288603	-0.693592	-1.048260	-76.319428	-122.974544
12119		9.489889	-0.093915	2.293228	-0.001332	0.001267	0.013961	0.370391	-0.546334	-0.288614	-0.693564	-1.058677	-76.320943	-122.960049
12120		9.507381	-0.101437	2.255362	-0.000731	0.000778	0.011071	0.370416	-0.546337	-0.288638	-0.693538	-1.061522	-76.322999	-122.952797
12121		9.458434	-0.099946	2.279408	-0.006419	-0.000581	0.015597	0.370439	-0.546361	-0.288631	-0.693510	-1.078794	-76.325555	-122.934248
12122		9.517496	-0.110226	2.276801	-0.008015	0.001800	0.011966	0.370450	-0.546375	-0.288626	-0.693496	-1.087561	-76.326960	-122.925050
12123		9.484240	-0.056545	2.252484	-0.017056	0.002799	0.017485	0.370455	-0.546410	-0.288570	-0.693488	-1.115229	-76.327556	-122.902073
12124		9.500781	-0.086185	2.264893	-0.015935	0.000620	0.015831	0.370455	-0.546449	-0.288529	-0.693475	-1.138106	-76.329648	-122.883128
12125		9.510905	-0.093696	2.286345	-0.013025	0.001156	0.009478	0.370442	-0.546471	-0.288512	-0.693472	-1.144690	-76.331273	-122.879474
12126		9.504406	-0.073086	2.295726	-0.011842	0.004361	0.007674	0.370430	-0.546477	-0.288501	-0.693478	-1.145825	-76.331307	-122.880460
12127		9.521826	-0.080383	2.258167	-0.011843	0.004361	0.007675	0.370418	-0.546483	-0.288487	-0.693485	-1.147335	-76.331116	-122.881331
12128		9.457967	-0.109508	2.280908	-0.013468	0.004051	0.004118	0.370389	-0.546489	-0.288480	-0.693499	-1.141080	-76.331385	-122.890954
12129		9.462524	-0.072852	2.261693	-0.004997	0.006232	0.001416	0.370377	-0.546466	-0.288503	-0.693514	-1.123839	-76.330193	-122.907086
12130		9.490148	-0.085618	2.245325	-0.011303	-0.001513	0.004930	0.370349	-0.546489	-0.288511	-0.693508	-1.118825	-76.333662	-122.914125
12131		9.483700	-0.064802	2.254535	-0.018008	0.003207	0.006918	0.370316	-0.546509	-0.288480	-0.693522	-1.122137	-76.334142	-122.916777
12132		9.483693	-0.065817	2.254532	-0.020851	-0.003000	0.005239	0.370260	-0.546554	-0.288458	-0.693526	-1.123045	-76.338433	-122.923376
12133		9.487420	-0.050992	2.285032	-0.017408	0.002720	0.004029	0.370218	-0.546571	-0.288437	-0.693543	-1.119225	-76.339224	-122.933013
12134		9.473503	-0.061270	2.233290	-0.012901	0.000873	0.001303	0.370175	-0.546583	-0.288445	-0.693554	-1.105833	-76.341343	-122.949819
12135		9.503929	-0.079493	2.297484	-0.008913	0.000718	-0.002658	0.370130	-0.546581	-0.288477	-0.693567	-1.081468	-76.343353	-122.975590
12136		9.525144	-0.070102	2.290219	-0.012267	0.003078	-0.001661	0.370083	-0.546579	-0.288492	-0.693586	-1.061086	-76.344230	-122.998911
12137		9.498324	-0.036716	2.257050	-0.016226	0.005926	0.002230	0.370043	-0.546580	-0.288475	-0.693615	-1.052200	-76.343201	-123.013064
12138		9.493546	-0.074491	2.277056	-0.020195	0.001901	0.002209	0.369985	-0.546602	-0.288453	-0.693637	-1.045040	-76.344696	-123.027636
12139		9.517502	-0.102808	2.229909	-0.019019	-0.001766	-0.003507	0.369906	-0.546627	-0.288456	-0.693658	-1.024550	-76.348131	-123.055377
12140		9.468541	-0.100456	2.254020	-0.019095	0.003902	0.004538	0.369862	-0.546644	-0.288428	-0.693679	-1.022590	-76.348498	-123.063975
12141		9.462102	-0.079348	2.263238	-0.015720	-0.002638	-0.000445	0.369801	-0.546670	-0.288436	-0.693688	-1.007456	-76.352400	-123.084258
12142		9.468574	-0.101485	2.253834	-0.020785	-0.001790	0.001124	0.369732	-0.546706	-0.288422	-0.693703	-0.998623	-76.356088	-123.101109
12143		9.479788	-0.086674	2.224580	-0.024235	-0.007508	0.002336	0.369650	-0.546768	-0.288401	-0.693706	-0.995118	-76.362750	-123.114448
12144		9.512391	-0.031079	2.308100	-0.026468	-0.007326	0.001677	0.369560	-0.546835	-0.288375	-0.693712	-0.991395	-76.369631	-123.129360
12145		9.518950	-0.053537	2.298317	-0.024210	-0.004812	0.002273	0.369482	-0.546888	-0.288350	-0.693723	-0.987599	-76.374749	-123.142980
12146		9.530092	-0.038848	2.269369	-0.023598	0.001574	0.003300	0.369420	-0.546920	-0.288315	-0.693745	-0.985727	-76.376458	-123.153918
12147		9.540229	-0.045185	2.290778	-0.021183	-0.000365	-0.008279	0.369320	-0.546936	-0.288321	-0.693783	-0.955061	-76.379129	-123.193402
12148		9.581697	-0.047956	2.326434	-0.021227	0.007989	-0.000297	0.369262	-0.546936	-0.288292	-0.693826	-0.942862	-76.377170	-123.213524
12149		9.536246	-0.061437	2.261261	-0.015693	0.006930	0.003421	0.369228	-0.546934	-0.288272	-0.693854	-0.936421	-76.375548	-123.224845
12150		9.530714	-0.018589	2.220660	-0.003389	-0.000333	0.001072	0.369208	-0.546932	-0.288315	-0.693848	-0.917162	-76.378370	-123.242142
12151		9.505757	-0.012336	2.318152	-0.005506	0.003753	-0.003784	0.369173	-0.546912	-0.288356	-0.693866	-0.887972	-76.378631	-123.270864
12152		9.541565	-0.073631	2.423479	-0.025069	0.003695	-0.008500	0.369067	-0.546923	-0.288343	-0.693919	-0.858750	-76.379241	-123.311047
12153		9.601408	-0.061470	2.371495	-0.050963	0.013805	0.002141	0.368943	-0.546960	-0.288191	-0.694019	-0.869256	-76.373688	-123.325724
12154		9.533696	-0.004877	2.254378	-0.043688	0.023822	0.009157	0.368875	-0.546961	-0.288028	-0.694122	-0.891447	-76.362608	-123.324144
12155		9.456532	0.008273	2.297254	-0.026911	0.023061	0.012054	0.368864	-0.546936	-0.287915	-0.694194	-0.911233	-76.351665	-123.315092
12156		9.427431	-0.033999	2.245178	-0.027560	0.013986	0.011092	0.368833	-0.546944	-0.287820	-0.694243	-0.929238	-76.346227	-123.308378
12157		9.358681	-0.101179	2.287735	-0.028730	0.006606	0.008898	0.368783	-0.546975	-0.287740	-0.694279	-0.943221	-76.344739	-123.306370
12158		9.376120	-0.108764	2.250192	-0.022064	0.003363	0.010944	0.368752	-0.547009	-0.287685	-0.694291	-0.958107	-76.345354	-123.299422
12159		9.369744	-0.088429	2.259214	-0.011487	-0.008113	0.009208	0.368728	-0.547060	-0.287691	-0.694261	-0.963522	-76.352295	-123.296064
12160		9.431742	-0.104370	2.336284	-0.003603	-0.012321	0.005455	0.368708	-0.547106	-0.287745	-0.694214	-0.955385	-76.361911	-123.301762
12161		9.447897	-0.052074	2.286908	-0.008623	-0.012949	0.002974	0.368663	-0.547159	-0.287787	-0.694178	-0.944622	-76.371682	-123.313362
12162		9.466843	-0.005493	2.317879	-0.009099	-0.019594	-0.006249	0.368577	-0.547225	-0.287867	-0.694139	-0.912806	-76.385626	-123.346654
12163		9.504325	0.056619	2.260820	-0.011466	-0.012283	0.005216	0.368534	-0.547284	-0.287891	-0.694105	-0.908906	-76.394993	-123.352868
12164		9.508419	0.071545	2.289924	-0.004775	-0.019700	0.003259	0.368489	-0.547355	-0.287960	-0.694044	-0.896312	-76.408883	-123.364145
12165		9.534806	0.117871	2.261403	0.001436	-0.015863	0.003942	0.368472	-0.547402	-0.288039	-0.693984	-0.882104	-76.420312	-123.373358
12166		9.526701	0.065039	2.248773	0.009382	-0.014684	0.000056	0.368465	-0.547424	-0.288157	-0.693921	-0.853965	-76.431338	-123.391881
12167		9.530735	0.080793	2.278154	0.017827	-0.011032	0.001396	0.368490	-0.547420	-0.288292	-0.693855	-0.824096	-76.440019	-123.407543
12168		9.526222	0.043973	2.296784	0.018496	-0.006126	-0.001630	0.368514	-0.547394	-0.288430	-0.693805	-0.786278	-76.446168	-123.430816
12169		9.547616	0.054099	2.288818	0.019653	-0.005610	-0.003363	0.368536	-0.547360	-0.288574	-0.693760	-0.743818	-76.451775	-123.458353
12170		9.543925	0.039203	2.257956	0.016877	0.000442	-0.001253	0.368565	-0.547314	-0.288694	-0.693731	-0.707076	-76.454099	-123.481435
12171		9.543896	0.039515	2.258071	0.014591	0.002105	0.002151	0.368603	-0.547271	-0.288791	-0.693704	-0.680365	-76.455239	-123.495754
12172		9.533698	0.045918	2.236919	0.010729	0.001991	-0.002063	0.368616	-0.547231	-0.288888	-0.693689	-0.645690	-76.456737	-123.520405
12173		9.495812	0.064449	2.232536	0.011230	0.004468	0.003162	0.368651	-0.547187	-0.288966	-0.693672	-0.623240	-76.456514	-123.532323
12174		9.453218	0.045518	2.247651	0.006731	0.002142	0.001911	0.368668	-0.547159	-0.289039	-0.693655	-0.600346	-76.457879	-123.547033
12175		9.502057	0.042658	2.223957	0.009549	0.005649	0.003667	0.368703	-0.547115	-0.289108	-0.693643	-0.580032	-76.456974	-123.557744
12176		9.463168	0.038995	2.269835	0.009463	0.004436	0.007795	0.368751	-0.547082	-0.289170	-0.693617	-0.569705	-76.457004	-123.557885
12177		9.494489	0.041698	2.284162	0.010536	0.003738	0.010190	0.368808	-0.547053	-0.289228	-0.693586	-0.564387	-76.457155	-123.552589
12178		9.518272	0.013322	2.237496	0.013438	0.008458	0.007820	0.368871	-0.546999	-0.289295	-0.693567	-0.551253	-76.454875	-123.553571
12179		9.496859	0.003326	2.245524	0.018941	0.004701	0.011602	0.368957	-0.546953	-0.289376	-0.693523	-0.544456	-76.454467	-123.544843
12180		9.514269	-0.003389	2.208011	0.017866	0.005399	0.009211	0.369035	-0.546902	-0.289463	-0.693486	-0.532115	-76.453864	-123.541916
12181		9.514302	0.027195	2.328844	0.008266	0.001232	0.009602	0.369080	-0.546885	-0.289519	-0.693452	-0.526753	-76.455455	-123.538003
12182		9.483711	0.044401	2.265531	-0.006814	0.014559	0.014064	0.369119	-0.546856	-0.289489	-0.693467	-0.540084	-76.449649	-123.523608
12183		9.501952	0.058320	2.178699	0.002630	0.012130	0.017941	0.369193	-0.546823	-0.289482	-0.693456	-0.557522	-76.444951	-123.499562
12184		9.444324	0.006862	2.192527	0.024962	0.006116	0.020559	0.369327	-0.546776	-0.289559	-0.693390	-0.568199	-76.443969	-123.469384
12185		9.498665	-0.008909	2.330110	0.034014	-0.001760	0.011089	0.369444	-0.546723	-0.289706	-0.693308	-0.551688	-76.447266	-123.461764
