Acc_X,Acc_Y,Acc_Z,Gyr_X,Gyr_Y,Gyr_Z,Quat_q0,Quat_q1,Quat_q2,Quat_q3,Roll,Pitch,Yaw,Time,Acc_X_global,Acc_Y_global,Acc_Z_global,Gyr_X_global,Gyr_Y_global,Gyr_Z_global,Acc_Global_Mag,Acc_Local_Mag,Gyr_Global_Mag
9.459032,-0.064478,2.425331,-0.030555,-0.01323,0.01831,0.409255,-0.528019,-0.310903,-0.676052,-2.715977,-75.560832,-115.516514,0.0,1.6298963606210024e-09,9.229269485086324e-10,-4.108039861962011e-09,5.585919842161042e-12,4.745508491538173e-12,1.5966498416183086e-11,1.873060676713129e-09,2.426187930075698,1.7568478107118055e-11
9.485951,-0.111351,2.337934,-0.020072,-0.010538,0.018269,0.409236,-0.528108,-0.310862,-0.676012,-2.747983,-75.568662,-115.490779,0.01,3.16122312160333e-08,1.7852319226746676e-08,-7.968185988156871e-08,1.0847110605693871e-10,9.2546451843326e-11,3.0467205709953075e-10,3.630479946549243e-08,2.3405842077475016,3.3638651723168754e-10
9.473079,-0.155616,2.367905,-0.008363,-0.024346,0.012687,0.409202,-0.528217,-0.310899,-0.675931,-2.763642,-75.584787,-115.476044,0.02,3.0480978063286155e-07,1.7165631752904876e-07,-7.682925164674348e-07,1.0527038407707421e-09,8.918689536938572e-10,2.8846212488328634e-09,3.498212310839449e-07,2.3730129431760374,3.1976015005241846e-09
9.491596,-0.169556,2.4881,-0.010328,-0.024966,0.01195,0.409165,-0.528326,-0.310937,-0.67585,-2.777614,-75.601045,-115.463168,0.03,1.956842970099114e-06,1.0989135899091823e-06,-4.931768260671018e-06,6.8379532321677534e-09,5.6865593725139795e-09,1.8151365608130447e-08,2.244291756370684e-06,2.4938706556547796,2.021303132492652e-08
9.450292,-0.175126,2.481671,-0.025958,-0.025998,0.013442,0.409089,-0.528473,-0.31092,-0.675789,-2.804489,-75.61793,-115.446443,0.04,9.45174242536546e-06,5.293087884043491e-06,-2.3815336971801667e-05,3.3578460248659775e-08,2.7104832376390217e-08,8.580270271132694e-08,1.0832922699976279e-05,2.4878424524308205,9.604316073199271e-08
9.46411,-0.134431,2.44777,-0.038933,-0.020955,0.007259,0.408967,-0.52862,-0.310866,-0.675773,-2.824014,-75.632023,-115.444756,0.05,3.679221534608622e-05,2.054860762574635e-05,-9.267117486473576e-05,1.3342047643132492e-07,1.0346980674251256e-07,3.2653677371806705e-07,4.21415754977156e-05,2.4514586814101107,3.67604800062103e-07
9.483617,-0.153136,2.41194,-0.041454,-0.022027,0.008039,0.408832,-0.52878,-0.310799,-0.675761,-2.847139,-75.646793,-115.441977,0.06,0.00012069445379306113,6.723653815634249e-05,-0.0003038546007708943,4.4807035135340683e-07,3.308949907428133e-07,1.0468348495263719e-06,0.00013815897813625674,2.4167964742807784,1.1858000408346905e-06
9.479784,-0.126057,2.427782,-0.033943,-0.027606,0.012725,0.408731,-0.528947,-0.310761,-0.675709,-2.876831,-75.664535,-115.426845,0.07,0.0003443523564693557,0.0001913779745214311,-0.0008664054187094778,1.3110238305514672e-06,9.153039812440407e-07,2.9198250510221587e-06,0.00039395948337097274,2.4310524072452653,3.3289552701908725e-06
9.480426,-0.128014,2.425173,-0.027937,-0.026614,0.012713,0.408647,-0.529102,-0.310738,-0.675649,-2.904771,-75.681917,-115.410412,0.08,0.0008747602641568708,0.0004851079850832588,-0.002199397160938531,3.4174097304994013e-06,2.243042519402144e-06,7.259167353627767e-06,0.001000267602664076,2.4285492920929155,8.33099271863402e-06
9.470855,-0.170822,2.419987,-0.023023,-0.023597,0.013393,0.408583,-0.529234,-0.310727,-0.675589,-2.929349,-75.697342,-115.394103,0.09,0.0020145691376149983,0.0011150277390329433,-0.005061269041731245,8.07250855575862e-06,4.960788703772442e-06,1.639138856484355e-05,0.002302558505020829,2.4260084987182133,1.8932840199768132e-05
9.456839,-0.184735,2.433223,-0.025107,-0.023347,0.014889,0.408517,-0.52937,-0.310705,-0.675532,-2.957227,-75.712494,-115.375705,0.1,0.004266341969824606,0.0023572506802966102,-0.010709564095115936,1.751413413997186e-05,1.0047612961703395e-05,3.411736255156196e-05,0.004874249129173203,2.4402256428359244,3.9644594188562965e-05
9.473245,-0.205499,2.431553,-0.036263,-0.022678,0.016362,0.40843,-0.529531,-0.310639,-0.675489,-2.996055,-75.7273,-115.352521,0.11,0.008403440904925416,0.004635979612044016,-0.02107649446248771,3.5283336266501644e-05,1.8857139533825892e-05,6.623683203663574e-05,0.009597402044608816,2.4402212667727494,7.738102769893086e-05
9.462224,-0.218496,2.410611,-0.040972,-0.019698,0.018534,0.408338,-0.529699,-0.310543,-0.675457,-3.043176,-75.740611,-115.324271,0.12,0.015538396585170616,0.008560621920159961,-0.038937469476303846,6.65977440512328e-05,3.310791676675743e-05,0.00012109118315685917,0.017740519048155413,2.4204929033849694,0.00014210724226328532
9.469765,-0.182327,2.445934,-0.05586,-0.017206,0.023719,0.408232,-0.529892,-0.31038,-0.675444,-3.109286,-75.752051,-115.284527,0.13,0.027177237361064276,0.014955166079939016,-0.06804399552284483,0.00011866759035935084,5.4806066924236196e-05,0.00021006022957236451,0.031020303400485727,2.452720177126816,0.00024740857305556943
9.500611,-0.19274,2.429023,-0.058955,-0.021667,0.028358,0.408123,-0.530117,-0.310201,-0.675416,-3.188498,-75.765955,-115.233822,0.14,0.04524746521322538,0.024873111359916954,-0.1131905530733411,0.0002008892060889622,8.60953474326854e-05,0.0003479322402636553,0.05163336883203411,2.436657842646152,0.00041088407828424587
9.457768,-0.169827,2.407288,-0.052922,-0.014803,0.023676,0.408028,-0.530296,-0.310044,-0.675405,-3.252705,-75.775997,-115.19431,0.15,0.07208844153001634,0.03959181920653727,-0.18018783673217656,0.00032485521611163725,0.0001290440532197794,0.0005530588103998508,0.08224509438446598,2.413270959687909,0.0006542609012215432
9.458112,-0.173379,2.405682,-0.055888,-0.017191,0.023748,0.407917,-0.530494,-0.309875,-0.675394,-3.320276,-75.787543,-115.154136,0.16,0.11039585299827274,0.06058172547423864,-0.27572200284173903,0.0005041336937790944,0.0001853932326574249,0.000847213272837553,0.1259261284271547,2.4119216742599665,0.0010031409480180948
9.442642,-0.158048,2.403463,-0.052593,-0.017386,0.016996,0.407797,-0.530671,-0.309742,-0.675388,-3.369692,-75.799264,-115.12969,0.17,0.16311633722437177,0.0894482491298397,-0.4070905050309051,0.0007537882340357517,0.0002563037834888076,0.0012550958722022556,0.18603206374678757,2.408653890178703,0.0014863223000481948
9.443016,-0.160952,2.401802,-0.055661,-0.015972,0.016967,0.407669,-0.530848,-0.309596,-0.675393,-3.41978,-75.81007,-115.10644,0.18,0.2332937119126235,0.12784716698216306,-0.5818183818153148,0.0010896352035108853,0.0003421484450805876,0.0018034684442845537,0.26602791981920854,2.4071888985927132,0.002134682380292539
9.389919,-0.177944,2.377356,-0.054578,-0.017993,0.016276,0.40754,-0.53103,-0.309459,-0.675391,-3.468907,-75.822153,-115.083468,0.19,0.323873901147535,0.17737733420949567,-0.8071728558254864,0.0015272611390411846,0.0004423960043552838,0.002519948576591148,0.369265517664174,2.3840062117939205,0.002979661329775357
9.429699,-0.115744,2.347539,-0.055025,-0.019308,0.015567,0.407411,-0.531216,-0.309327,-0.675383,-3.518415,-75.83503,-115.059663,0.2,0.43748089719463934,0.2394575359411847,-1.0896071063768253,0.0020808499765772657,0.0005556273793003007,0.003431538523439944,0.4987278285089477,2.3503906122295923,0.004051433702715882
9.412632,-0.132042,2.395265,-0.059182,-0.023573,0.008922,0.407236,-0.531414,-0.309205,-0.675388,-3.554409,-75.850554,-115.052959,0.21,0.5761803147538782,0.315196606029371,-1.4341745335980345,0.0027618939047892458,0.0006797063483592708,0.00456299887557105,0.6567592066825654,2.3989017299566484,0.005376896632796147
9.433745,-0.118568,2.308733,-0.057547,-0.025136,0.006713,0.407054,-0.531611,-0.309098,-0.675392,-3.583949,-75.867018,-115.052125,0.22,0.7412498029467172,0.40526746824319465,-1.843961523216297,0.003577880713966981,0.0008121034207832542,0.0059351959879949505,0.8448035222374465,2.3117756024132188,0.006977628091646623
9.447097,-0.140603,2.34135,-0.056973,-0.018789,0.000548,0.406864,-0.531776,-0.308997,-0.675424,-3.599042,-75.880106,-115.065668,0.23,0.9329764759056728,0.5097962658375962,-2.3195888797334816,0.004531062629243395,0.0009503435699156435,0.007563554432833287,1.0631732395312277,2.3455679538459333,0.008867978186116503
9.418452,-0.166045,2.370391,-0.058398,-0.018938,-0.001693,0.406656,-0.531945,-0.308892,-0.675464,-3.610267,-75.893519,-115.085112,0.24,1.1505005037119447,0.6282771853837429,-2.8588294653163726,0.005617415493367209,0.0010925221703371062,0.009456733534114782,1.3108713250030135,2.3761995780880865,0.011053450622002666
9.427502,-0.158846,2.42173,-0.060378,-0.019546,-0.002418,0.406446,-0.532115,-0.308788,-0.675504,-3.620665,-75.907148,-115.105507,0.25,1.3917211685557378,0.7595220011778778,-3.456382409105147,0.006825892010053813,0.0012378131349560124,0.011615624395749348,1.5854846203225677,2.4269339184691456,0.013529512673896038
9.448071,-0.207329,2.401692,-0.060812,-0.017915,-0.005454,0.406229,-0.532273,-0.308689,-0.675555,-3.624074,-75.919828,-115.133011,0.26,1.6532773116154302,0.9016509196312881,-4.10383322712248,0.00813805812729161,0.001386882518975,0.014032735093704226,1.883162300486682,2.4106243542088843,0.016280942460886398
9.450148,-0.175502,2.349835,-0.060694,-0.015824,-0.010006,0.405998,-0.532419,-0.308597,-0.675621,-3.616775,-75.931604,-115.171834,0.27,1.9306085903356895,1.0521282208032758,-4.789815350934288,0.00952817758848002,0.0015421219980664804,0.016692000608394056,2.198686726682231,2.356379740031093,0.019281783961168142
9.477928,-0.184393,2.36758,-0.065298,-0.0137,-0.010036,0.405756,-0.53257,-0.308482,-0.6757,-3.612456,-75.942378,-115.210823,0.28,2.2180978401038183,1.2078427620967882,-5.500373161228598,0.010963777286707896,0.001707630452329706,0.019569023558612966,2.5256369822725557,2.374749636245682,0.02249593512596898
9.469652,-0.193174,2.312886,-0.063224,-0.01394,-0.011529,0.405515,-0.532713,-0.308382,-0.675777,-3.602786,-75.953129,-115.253582,0.29,2.509288629064104,1.3652299343741967,-6.21951101414057,0.012406687846528921,0.0018888975461012357,0.022631724150754304,2.856638268605562,2.3209390003341324,0.025878345683151994
9.440947,-0.217562,2.342321,-0.05654,-0.013354,-0.015311,0.405275,-0.532839,-0.308306,-0.675857,-3.581806,-75.963859,-115.305349,0.3,2.797166329153616,1.5204284390872995,-6.9298982597933145,0.013814513625005975,0.0020921780309337604,0.025841354673980913,3.183683732932051,2.3524032160505564,0.02937675283272596
9.4703,-0.193035,2.310243,-0.056535,-0.010402,-0.017625,0.405037,-0.532947,-0.308237,-0.675946,-3.553756,-75.972798,-115.363099,0.31,3.0744861540686514,1.6694625431813916,-7.613688070031618,0.015142448434323271,0.0023235852951604,0.02915381633939686,3.498509724817916,2.3182936031214854,0.03293383974518168
9.400962,-0.251267,2.351781,-0.052815,-0.012203,-0.021347,0.404795,-0.533043,-0.308197,-0.676033,-3.513289,-75.982746,-115.431006,0.32,3.3341279944311517,1.8084384680013432,-8.253398965036912,0.016345321925482326,0.0025879722921226854,0.032521204427320635,3.7930013413913444,2.3651657399112644,0.03648966822041586
9.453494,-0.20578,2.357496,-0.046251,-0.013709,-0.020576,0.40457,-0.533136,-0.308178,-0.676103,-3.472916,-75.993661,-115.49538,0.33,3.5694557590653146,1.9337424179380307,-8.832802899178564,0.01737974021282933,0.0028877021093410716,0.035893500884790125,4.059602708992268,2.3664599718600776,0.03998421687496404
9.450894,-0.206921,2.390597,-0.044824,-0.01061,-0.020644,0.404356,-0.533213,-0.30816,-0.676178,-3.430586,-76.00271,-115.560217,0.34,3.7746584362598203,2.0422275263575447,-9.337762934602631,0.01820617532407682,0.0032214343803281236,0.03922033044304189,4.291705905562482,2.399535437673301,0.04335985216140828
9.464138,-0.226617,2.424066,-0.046804,-0.011217,-0.021369,0.404131,-0.533297,-0.308136,-0.676258,-3.388216,-76.012203,-115.626969,0.35000000000000003,3.945051224494071,2.1313776942235774,-9.756966851132402,0.01879086235572617,0.0035830640106047544,0.0424526957452019,4.483993759955068,2.434635750383412,0.04656357193998997
9.431315,-0.157759,2.406912,-0.043292,-0.008361,-0.022942,0.403918,-0.533359,-0.308124,-0.676341,-3.339336,-76.019935,-115.697675,0.36,4.0773177329287345,2.199437856740018,-10.082510150518933,0.019107380195004426,0.0039609436273864386,0.04554460828998126,4.632714839153845,2.4120765489148557,0.04954888895448222
9.435813,-0.185136,2.3875,-0.039228,-0.005039,-0.026031,0.403706,-0.5334,-0.308125,-0.676435,-3.280951,-76.026022,-115.776454,0.37,4.169678193925356,2.245502507981139,-10.310292182198962,0.019137819323556668,0.004337501262495601,0.04845453558820085,4.73587349432459,2.394667323136139,0.05227726145018953
9.466354,-0.190186,2.371755,-0.038914,-0.005822,-0.02075,0.403512,-0.533451,-0.308115,-0.676516,-3.234229,-76.032285,-115.843036,0.38,4.221973549394327,2.2695571607846823,-10.440201712559906,0.018873475310717248,0.004689332555508066,0.05114659197287337,4.793323519005822,2.3793680872494276,0.05471902576398812
9.50559,-0.187084,2.409169,-0.029594,-0.007953,-0.025249,0.403324,-0.533483,-0.308152,-0.676585,-3.172377,-76.039977,-115.919695,0.39,4.235660792900743,2.2724705952275484,-10.476082212567867,0.018315044991596835,0.004987806121749935,0.05359141236171906,4.806760339219171,2.416422085153378,0.05685383506744464
9.497234,-0.19311,2.354816,-0.01118,-0.013467,-0.027464,0.403172,-0.533495,-0.308268,-0.676613,-3.097157,-76.050966,-115.999085,0.4,4.213720661386017,2.255939005666101,-10.425481423560557,0.017472339609617082,0.005200176122817151,0.055766665643860146,4.779613228021403,2.3627208607780985,0.05867065263124489
9.455708,-0.194255,2.349579,0.001209,-0.017007,-0.031949,0.40303,-0.533486,-0.308446,-0.676624,-3.003126,-76.063993,-116.090708,0.41000000000000003,4.16048426835757,2.222386243929796,-10.299203372017411,0.016363561690701276,0.00529115181758822,0.057657186589836505,4.716845340315836,2.3575954874121217,0.060167379901549446
9.422876,-0.186646,2.397636,0.005934,-0.014065,-0.03879,0.402881,-0.533444,-0.308653,-0.676652,-2.888859,-76.075266,-116.20031,0.42,4.081390185031006,2.17482704876154,-10.110693028601705,0.015014217947622446,0.0052248336345845844,0.059254730028282104,4.624674965280508,2.4048898348598007,0.061350213184734666
9.511405,-0.138492,2.476274,-0.010397,-0.005844,-0.040388,0.402696,-0.533408,-0.308791,-0.676728,-2.780381,-76.082061,-116.313659,0.43,3.9826874992493972,2.1167022688880537,-9.875293485455616,0.013455758628607761,0.004966891784826305,0.06055737503503522,4.510235937486336,2.4801437371934716,0.06223281389594588
9.563568,-0.156277,2.392394,-0.024767,0.001791,-0.02696,0.402536,-0.533393,-0.308833,-0.676815,-2.710821,-76.08403,-116.394538,0.44,3.871103282762005,2.0516965094702426,-9.609422295053982,0.011724044925471558,0.004486838316358074,0.06156862638903358,4.3811983740505465,2.3974927636939802,0.06283534596804585
9.559194,-0.12787,2.255021,-0.02675,0.002938,-0.015707,0.402405,-0.533397,-0.308832,-0.67689,-2.667654,-76.085066,-116.45025,0.45,3.7534945296940485,1.9835493051979542,-9.329717134014821,0.009857750526384712,0.0037602280295504307,0.06229627345740075,4.2453726609797675,2.258643497177233,0.06318338584591607
9.479793,-0.161824,2.384609,-0.015364,-0.011232,-0.012459,0.402296,-0.533432,-0.30889,-0.676901,-2.627865,-76.094115,-116.495544,0.46,3.636504937293109,1.9158708560960929,-9.052201126323855,0.007896800174984295,0.0027706195046551976,0.06275107408332657,4.110319853271219,2.390093531612728,0.06330665908144535
9.505991,-0.201941,2.453238,0.002534,0.002277,-0.015079,0.402244,-0.533381,-0.308988,-0.676928,-2.569394,-76.095492,-116.549735,0.47000000000000003,3.52624591881701,1.851972611379658,-8.791515122481675,0.005880935701021172,0.0015111371999313216,0.06294533720524284,3.982990438511497,2.461535466355299,0.06323752379907273
9.458239,-0.209932,2.362111,0.002758,0.003535,-0.021864,0.40217,-0.533315,-0.309102,-0.676972,-2.494938,-76.096322,-116.62049,0.48,3.4280190849825902,1.7947216417232597,-8.56025833904322,0.003848478375483051,-1.4498306962450408e-05,0.06289148744819052,3.869410887754712,2.3714214768667756,0.06300912782647743
9.466919,-0.199697,2.415563,-0.002073,-0.000317,-0.024763,0.402069,-0.533267,-0.309216,-0.677018,-2.416942,-76.099389,-116.697514,0.49,3.3460942936368774,1.7464259129086641,-8.3684705394977,0.0018353285980018197,-0.0017915620320671597,0.06260070874234228,3.7744337974308326,2.4238035190126284,0.06265322705672036
9.4583,-0.205785,2.362234,-0.005368,-0.000166,-0.017991,0.401987,-0.533235,-0.3093,-0.677053,-2.358142,-76.102188,-116.756277,0.5,3.2835534946908136,1.708755398721737,-8.223279019118806,-0.00012578475309552202,-0.0037945727405318905,0.06208177730550241,3.7015629894892963,2.3711804943911376,0.06219776264060704
9.466943,-0.132403,2.34986,0.005817,-0.003776,-0.017218,0.401927,-0.533195,-0.309427,-0.677062,-2.293344,-76.107018,-116.815045,0.51,3.242206275636855,1.6827016041852016,-8.128722748269963,-0.002005817250135559,-0.005988171819402912,0.06134019850789469,3.652860005872995,2.353587171533912,0.06166442619182926
9.467097,-0.130722,2.349336,0.010858,-0.007525,-0.01416,0.40189,-0.533161,-0.309571,-0.677044,-2.234593,-76.113942,-116.864181,0.52,3.2225785409976955,1.6685756758713886,-8.085754865252015,-0.003779713091122165,-0.008328552334363007,0.060377749929593556,3.628933347281057,2.3529700130218405,0.061066551413993884
9.49765,-0.135099,2.333543,0.01799,-0.005602,-0.017236,0.40186,-0.533102,-0.309743,-0.67703,-2.162846,-76.119786,-116.92292,0.53,3.2239714201770537,1.6660430085337299,-8.092414014223003,-0.005426538892554598,-0.010765316773401774,0.059192502460778125,3.629006892305741,2.3374504642130924,0.06040771239794897
9.49049,-0.106333,2.386299,0.01152,-0.001998,-0.022535,0.401802,-0.533039,-0.309898,-0.677043,-2.084702,-76.123853,-116.992138,0.54,3.2445835423840497,1.6741902495666054,-8.144145460428815,-0.006929487949535968,-0.013243619297975873,0.05777934651754609,3.65105948393796,2.3886669136340464,0.059681355039468975
9.505031,-0.091736,2.370564,0.006032,-0.005473,-0.021683,0.401725,-0.532997,-0.310041,-0.677057,-2.009381,-76.129677,-117.061613,0.55,3.281686454593774,1.691618961780458,-8.234245042339852,-0.008275792138608165,-0.0157064439202076,0.0561309983612963,3.6920239297869464,2.372338334174112,0.05887164082286074
9.519586,-0.077192,2.354744,0.007019,-0.003689,-0.022475,0.401648,-0.532949,-0.310182,-0.677076,-1.932733,-76.134581,-117.132665,0.56,3.331840357485878,1.7165590091307357,-8.35439325192217,-0.009456569985022615,-0.018096880727891965,0.05423940939319568,3.7480308162553193,2.3560088943804947,0.0579554772155649
9.529702,-0.03385,2.357749,0.005591,-0.003834,-0.024716,0.401562,-0.532897,-0.310328,-0.677101,-1.850387,-76.139479,-117.209633,0.5700000000000001,3.391135618832562,1.7469940266432242,-8.495243315240383,-0.010466628093768462,-0.02036028351632207,0.05209745567565267,3.814680709370315,2.3579919782520466,0.05690550356859057
9.557278,-0.039708,2.376659,0.006468,-0.001202,-0.023273,0.401486,-0.53284,-0.310465,-0.677128,-1.772155,-76.142895,-117.282257,0.58,3.4554447650118454,1.7807911385230126,-8.647026145817337,-0.011304222512733319,-0.022446219257641804,0.049700751685857206,3.8873275657049864,2.3769906873071673,0.05569365245446517
9.515378,-0.041192,2.372838,0.007563,-0.000266,-0.026299,0.401406,-0.532769,-0.310615,-0.677162,-1.684657,-76.145724,-117.363366,0.59,3.520669858358396,1.8158273764609718,-8.800136367013197,-0.011970779865190765,-0.0243101484620437,0.04704941624687479,3.9613564990617123,2.373195515567143,0.05429484743508492
9.525381,0.002449,2.37614,0.002077,-0.00079,-0.027761,0.401306,-0.532712,-0.310751,-0.677204,-1.59831,-76.149049,-117.446584,0.6,3.582971284575005,1.850105970217654,-8.945667007574,-0.012470576937527565,-0.025914802002170095,0.0441496221817818,4.032440368700332,2.3761412620467244,0.05269042978341088
9.536946,0.015174,2.394972,-0.00253,-0.001637,-0.025468,0.401199,-0.532668,-0.310867,-0.677249,-1.51854,-76.152593,-117.525688,0.61,3.6389658844340245,1.8818567556152086,-9.075865611576234,-0.012810381482760222,-0.02723124158893782,0.04101478356043565,4.096761837931185,2.395020069030738,0.05087100217922117
9.513883,-0.002731,2.357033,-0.004508,0.000703,-0.028509,0.401082,-0.532616,-0.310981,-0.677307,-1.433292,-76.15489,-117.61149,0.62,3.6858849047009277,1.9096162758135193,-9.184490932148208,-0.012999064396739519,-0.028239606195533676,0.037666271355289646,4.151190413791453,2.3570345821497827,0.048838499476127624
9.51385,-0.00016,2.357166,-0.007582,0.002106,-0.028522,0.400957,-0.532564,-0.311081,-0.677376,-1.349039,-76.156278,-117.69819,0.63,3.7216852197114947,1.932284638040458,-9.26705661084077,-0.01304720155869973,-0.028929555108135847,0.0341335940970025,4.1934073015897395,2.3571660054302495,0.046607412213583894
9.525326,0.01275,2.376327,-0.004953,0.002343,-0.031539,0.400833,-0.5325,-0.3112,-0.677445,-1.256315,-76.157485,-117.79151,0.64,3.745110474855328,1.9491577280039203,-9.320955782269191,-0.012966689999003406,-0.029300420996453247,0.030454028909587826,4.221974457230704,2.3763612043266904,0.0442051761327298
9.50507,-0.002685,2.304376,-0.008028,0.003746,-0.031551,0.400699,-0.532439,-0.311303,-0.677524,-1.165163,-76.157904,-117.885577,0.65,3.7557020114568322,1.959934881803968,-9.345467909585128,-0.012770405789099205,-0.02936108535469969,0.026671735195100552,4.236347759541564,2.304377564246146,0.04167178968489096
9.490595,-0.012107,2.320111,-0.005947,0.003515,-0.033054,0.400569,-0.532372,-0.311419,-0.677601,-1.070213,-76.158377,-117.981821,0.66,3.7537624472892173,1.9647034840914013,-9.34165592354183,-0.012471929229600862,-0.02912958609984201,0.022836424227518238,4.236837534185094,2.3201425886720837,0.039058725997598326
9.488916,0.02143,2.304767,-0.013075,0.00158,-0.029976,0.400424,-0.532331,-0.311505,-0.677679,-0.985691,-76.15995,-118.072038,0.67,3.7402774323916113,1.963903130219692,-9.31216755017183,-0.012085356646359267,-0.028632465167997122,0.019001689642917305,4.224522550081215,2.3048666272018865,0.03642716179105942
9.447022,0.019882,2.300888,-0.015375,-0.004152,-0.031342,0.400261,-0.532313,-0.311597,-0.677747,-0.901069,-76.164835,-118.163781,0.68,3.7168032352627365,1.9582729074619378,-9.260959297729265,-0.011625208263382958,-0.027903864351064914,0.015223123672761033,4.201125928814676,2.300973898693334,0.03384545179556385
9.455617,0.030076,2.354355,-0.047645,0.007598,-0.029178,0.400036,-0.532322,-0.311552,-0.677894,-0.83795,-76.162892,-118.252352,0.6900000000000001,3.6853293398044804,1.9487859864015045,-9.192964753187972,-0.011106429462615306,-0.02698438141486319,0.011556350707155189,4.16886305407345,2.3545470969596254,0.031385647315574514
9.437831,0.08052,2.339041,-0.055755,0.000921,-0.022992,0.399804,-0.532381,-0.311476,-0.678019,-0.796183,-76.16484,-118.323363,0.7000000000000001,3.648126092573334,1.9365760613190697,-9.113730527389965,-0.010544469645470357,-0.025919705926239822,0.008055104163512228,4.130272488418708,2.340426514565454,0.029118751664383376
9.475547,0.048838,2.271045,-0.048965,0.005402,-0.019361,0.399605,-0.532415,-0.311405,-0.678142,-0.756736,-76.164045,-118.388333,0.71,3.6075876225367907,1.9228602518816704,-9.029043393309783,-0.00995541040793221,-0.024759064491015094,0.004769457719256158,4.088041095995378,2.271570061052267,0.027108470960133135
9.449601,0.027121,2.267708,-0.040183,-0.000109,-0.020039,0.399417,-0.532449,-0.311374,-0.67824,-0.710726,-76.166241,-118.45515,0.72,3.5660797956974446,1.9088629083740063,-8.944570977388818,-0.009356104679182962,-0.023553516793532476,0.0017443025138025553,4.044834077220918,2.2678701730709805,0.02540368948343338
9.470261,-0.018712,2.248684,-0.030297,-0.007636,-0.021435,0.399241,-0.532487,-0.311398,-0.678303,-0.656099,-76.172905,-118.524737,0.73,3.525801938714951,1.8957443878879172,-8.865535959179564,-0.008764282853342926,-0.022354154951308255,-0.000981857286228969,4.003139529825889,2.2487618528425815,0.02403091636311485
9.458588,0.037695,2.31952,-0.028419,-0.01678,-0.02351,0.399043,-0.532553,-0.311446,-0.678346,-0.596555,-76.184844,-118.599307,0.74,3.48866957546632,1.8845383264983135,-8.796440340838544,-0.008198582076238565,-0.021210267329374012,-0.0033777349011905058,3.9651355728178346,2.3198262744061244,0.022989155732802614
9.460662,0.00827,2.333412,-0.04357,-0.017385,-0.023411,0.398809,-0.532647,-0.311449,-0.678408,-0.544992,-76.197072,-118.673562,0.75,3.4562235979390548,1.876100253370384,-8.74085223863707,-0.007678460402279617,-0.020167533053060755,-0.005419677964801169,3.9325861363290193,2.3334266550813205,0.02224996747947793
9.447922,0.030124,2.297081,-0.054439,-0.022245,-0.026246,0.398525,-0.53278,-0.311429,-0.678481,-0.493989,-76.212321,-118.754487,0.76,3.4295692806722053,1.871069606164202,-8.70126311676548,-0.007223966505720221,-0.019266315427244,-0.007091653766151975,3.9067693714937834,2.297278515099334,0.021763918658109463
9.475985,0.023118,2.314098,-0.057963,-0.022156,-0.026967,0.398233,-0.532913,-0.311402,-0.678559,-0.442211,-76.227267,-118.837446,0.77,3.4093464902069313,1.869846350748504,-8.679018721431467,-0.006855345541760425,-0.01854012287068804,-0.008384814178933886,3.88844041560287,2.314213472333095,0.021471772804600813
9.484584,0.096209,2.299994,-0.058849,-0.02478,-0.0284,0.397931,-0.533056,-0.311382,-0.678633,-0.388268,-76.243833,-118.923038,0.78,3.395730470073674,1.8725825331595762,-8.674322455624011,-0.006592471289747356,-0.01801430628334116,-0.009296689742474296,3.8778280994496277,2.3020053370305202,0.021316762154323408
9.501179,0.079138,2.297846,-0.058423,-0.02346,-0.027667,0.397634,-0.533194,-0.311358,-0.67871,-0.334826,-76.259493,-119.007971,0.79,3.3884608078500156,1.8791882552618964,-8.686305808371248,-0.006454104560080107,-0.01770506206967144,-0.009830101752583965,3.87466322988848,2.2992083556650535,0.021254542785708645
9.491942,0.039461,2.292035,-0.053378,-0.024238,-0.026926,0.397353,-0.533321,-0.311355,-0.678777,-0.278371,-76.275336,-119.092414,0.8,3.3868946967522637,1.8893508181375758,-8.713156925945182,-0.006456990092244235,-0.017618808595793633,-0.009991912318931649,3.878234417990451,2.292374666529448,0.021259196813985467
9.490738,0.071764,2.274322,-0.049764,-0.025157,-0.028424,0.397073,-0.533446,-0.311366,-0.678837,-0.217882,-76.291929,-119.179483,0.81,3.3900794468164275,1.9025651541571886,-8.75229565010455,-0.0066148206237495455,-0.017751997735543937,-0.009791747270175752,3.887466118378441,2.2754539396305082,0.021325280539541178
9.481553,0.032263,2.268322,-0.050318,-0.025627,-0.026903,0.396794,-0.533581,-0.311367,-0.678893,-0.163005,-76.309041,-119.261774,0.8200000000000001,3.3968384148423088,1.9181731900769006,-8.800581460895552,-0.006937117433262041,-0.018091409482824918,-0.009240822864225789,3.9010126382361543,2.2685514313881003,0.021466613672540755
9.467811,0.021142,2.281275,-0.055386,-0.024841,-0.02762,0.396503,-0.533717,-0.311356,-0.678962,-0.107276,-76.325411,-119.347246,0.8300000000000001,3.4058641255094253,1.9354094577874053,-8.854539799893816,-0.007428099067664055,-0.01861495471079464,-0.008350987280217279,3.917361383728213,2.281372965954712,0.021712489106464002
9.478061,0.063413,2.282736,-0.061559,-0.022042,-0.027613,0.396194,-0.533859,-0.311314,-0.67905,-0.055455,-76.34018,-119.433262,0.84,3.4158123503188387,1.9534500964981878,-8.910592203669596,-0.008085630074054806,-0.019292979347491572,-0.007134057821283309,3.9349385372708796,2.2836166171809573,0.022101838086335927
9.513536,0.030032,2.246269,-0.067265,-0.023859,-0.022279,0.39589,-0.534024,-0.311246,-0.679129,-0.01882,-76.355952,-119.506078,0.85,3.425391280057671,1.9714623650047343,-8.965276480037236,-0.008900354918994411,-0.02009002497469721,-0.005601500820523457,3.952210682406138,2.2464697508279516,0.022676027707919887
9.509426,0.058965,2.2633,-0.065525,-0.018603,-0.019375,0.395608,-0.534169,-0.311168,-0.679215,0.013699,-76.36849,-119.57354,0.86,3.433440632523974,1.9886518982279973,-9.015444699865336,-0.009855125387152245,-0.02096696033147763,-0.0037644675833293285,3.967776575034492,2.2640679674481947,0.023471432383307723
9.482259,0.067609,2.242371,-0.063874,-0.023096,-0.019301,0.395324,-0.534329,-0.311102,-0.679284,0.045463,-76.383805,-119.639337,0.87,3.4389965202068797,2.004305190787819,-9.058428912604201,-0.010924820896708213,-0.021883360424756033,-0.0016341678981430198,3.9804442420179713,2.2433899969737765,0.02451333677458563
9.494208,0.078276,2.259579,-0.056438,-0.016015,-0.021721,0.395068,-0.534444,-0.311057,-0.679363,0.087302,-76.394978,-119.710358,0.88,3.441339083656658,2.0178251616258565,-9.092167063681647,-0.012076640511063554,-0.022799979724898355,0.0007774672654298499,3.9892897953888062,2.260934406261491,0.02581257013236095
9.535517,0.050017,2.311504,-0.054484,-0.01243,-0.023287,0.394813,-0.534542,-0.311013,-0.679454,0.134039,-76.404156,-119.786017,0.89,3.4400211848749027,2.0287581310537597,-9.11528442627364,-0.013270914534704978,-0.023681147129842626,0.003456909965835401,3.9936956953058997,2.312045077913707,0.027365381935660783
9.540343,0.022683,2.291416,-0.05253,-0.008845,-0.024852,0.394566,-0.534623,-0.310972,-0.679553,0.184343,-76.411299,-119.864022,0.9,3.434877758169205,2.0368111006233396,-9.12712878394772,-0.01446244494573583,-0.024496905697361487,0.006388046023866035,3.993367585533288,2.2915282681095164,0.029155922804070054
9.56901,0.049054,2.260217,-0.05068,-0.004428,-0.024183,0.39433,-0.534686,-0.310927,-0.679661,0.23546,-76.415859,-119.941941,0.91,3.4260166476665592,2.041858835893018,-9.12776044113161,-0.015602340811915584,-0.025224731073471313,0.009551187537210862,3.988330173870112,2.260749252350866,0.031159994863784683
9.566348,0.047616,2.294203,-0.050249,-0.003114,-0.023452,0.394103,-0.534748,-0.310877,-0.679767,0.282164,-76.419949,-120.015086,0.92,3.4137928503349313,2.0439408771425285,-9.117900733662244,-0.016640271343577557,-0.025850689301626636,0.012922206188720501,3.9789038608958704,2.294697079935607,0.033348765802364094
9.526367,0.013383,2.305503,-0.049818,-0.001799,-0.02272,0.393878,-0.534802,-0.310826,-0.679878,0.330348,-76.422977,-120.089477,0.93,3.398768978753103,2.0432492048117794,-9.09884492351232,-0.017527019948013537,-0.02636993585353461,0.016471895932710708,3.9656648728679,2.305541842538972,0.035691641889882934
9.53873,0.058009,2.275083,-0.046425,0.00192,-0.022054,0.393673,-0.53484,-0.310775,-0.67999,0.376492,-76.424031,-120.15983,0.9400000000000001,3.381665422993003,2.040107824430606,-9.072347083490131,-0.018217191856708045,-0.026786509928684282,0.020165649771839142,3.9493924809227847,2.2758224229869075,0.03815804795877388
9.498596,0.023694,2.287041,-0.044135,0.007646,-0.020658,0.393486,-0.534854,-0.310719,-0.680113,0.422911,-76.421627,-120.229054,0.9500000000000001,3.3633041016000114,2.0349459716524345,-9.040485737057784,-0.018671908648309754,-0.02711243626470762,0.023963501828920746,3.931007451962401,2.287163732948955,0.04071822433116829
9.52414,0.047347,2.291722,-0.039197,0.010668,-0.019996,0.393326,-0.534848,-0.310675,-0.68023,0.468944,-76.417528,-120.294025,0.96,3.3445498344790963,2.028266941674255,-9.005519577641229,-0.018861316608296326,-0.027366204847159414,0.027820548406757233,3.911506152622387,2.2922110425728692,0.04334329643194906
9.523908,0.048311,2.292667,-0.036656,0.008793,-0.018492,0.393167,-0.534847,-0.310637,-0.680341,0.514436,-76.414451,-120.35789,0.97,3.326253246449993,2.0206147019531047,-8.96974254831342,-0.018766742143544554,-0.02757075094956066,0.0316877259270565,3.8918947099411816,2.293175947372988,0.04600487901335292
9.49792,0.026496,2.28982,-0.032258,0.011332,-0.016321,0.393031,-0.534834,-0.310599,-0.680447,0.555935,-76.41003,-120.415514,0.98,3.309198737824913,2.0125404498848622,-8.935346951342835,-0.018382345254287686,-0.027751098651986692,0.03551289388558037,3.873127334447547,2.2899732903280774,0.048674425785710324
9.497653,0.027212,2.290915,-0.034348,0.011548,-0.014803,0.392895,-0.534825,-0.310553,-0.680553,0.593884,-76.405374,-120.470261,0.99,3.2940604743037354,2.0045711375993682,-8.904302150668201,-0.01771614971237282,-0.027931856624639356,0.039242149576028666,3.8560523666136297,2.2910766094063724,0.051322479270569384
9.497397,0.027957,2.291969,-0.023667,0.010471,-0.014889,0.392791,-0.534797,-0.310547,-0.680637,0.636683,-76.401368,-120.523115,1.0,3.2813686055118003,1.9971817241027179,-8.878254934721218,-0.01679036404313035,-0.028134763643110794,0.042821288843831434,3.8413688659549945,2.2921395007307037,0.05391793790754053
9.511355,0.041524,2.277921,-0.023797,0.014272,-0.014938,0.392688,-0.534758,-0.310532,-0.680735,0.680858,-76.395132,-120.578048,1.01,3.2714870835204533,1.990772557922842,-8.858455849557043,-0.015640948130264475,-0.02837647313959997,0.046197322957813224,3.8295956855808964,2.2782994370400482,0.05642744132711104
9.508247,0.039479,2.313676,-0.024009,0.015926,-0.010465,0.392607,-0.534719,-0.310503,-0.680825,0.712909,-76.388026,-120.619959,1.02,3.2646035876612958,1.9856528723842164,-8.845713927761093,-0.014316423447257785,-0.02866674295090295,0.049319964778997756,3.8210540318318835,2.314012796943224,0.058814973072644654
9.499161,0.032574,2.261775,-0.021026,0.01536,-0.008238,0.392535,-0.53468,-0.310478,-0.680909,0.742703,-76.3812,-120.658466,1.03,3.260731234220208,1.9820309230002786,-8.840380357316299,-0.012875967895493041,-0.0290071613893948,0.05214300646826402,3.815863566946357,2.2620095526104658,0.061041781467004945
9.496049,0.030086,2.297521,-0.018043,0.014793,-0.006012,0.392482,-0.534644,-0.310455,-0.680979,0.766456,-76.374851,-120.688917,1.04,3.259721013672853,1.9800108441655402,-8.842359874173946,-0.01138687681955219,-0.02939049754721935,0.05462552449266798,3.813951235922335,2.297717979395426,0.06306671258180364
9.50998,0.042919,2.283626,-0.01197,0.012833,-0.003797,0.392445,-0.534603,-0.310454,-0.681032,0.790966,-76.369499,-120.716649,1.05,3.2612832952407023,1.9795958803551783,-8.851147121725985,-0.009921508303414579,-0.029800716116214106,0.05673286405611533,3.815071241973765,2.284029279242497,0.06484702670179697
9.481207,0.017639,2.315164,-0.003807,0.010659,-0.003098,0.392432,-0.534555,-0.310482,-0.681064,0.817446,-76.36545,-120.741385,1.06,3.265016296006912,1.9806972810781007,-8.865883974778702,-0.008553861866123558,-0.030213648440924414,0.05843737282123417,3.818834001689636,2.315231193902026,0.06633972902555765
9.469489,0.007869,2.297072,-0.00028,0.010576,-0.002382,0.392429,-0.534501,-0.310521,-0.681091,0.845349,-76.361397,-120.765717,1.07,3.270439143751269,1.9831478580097963,-8.885432922544279,-0.007355963553696486,-0.030598265173517315,0.05971887157091408,3.824741510182012,2.297085478240851,0.06750338993810254
9.467419,0.039001,2.282664,-0.002111,0.003187,-0.00077,0.392417,-0.534481,-0.310561,-0.681096,0.866312,-76.361692,-120.784051,1.08,3.2770270710613896,1.9867189990611118,-8.908461064801696,-0.006394245307080394,-0.030918454772470128,0.060564865829398865,3.8322263510522934,2.282997156129854,0.06830036743310747
9.496863,-0.00035,2.317101,0.00229,0.005723,0.001401,0.392425,-0.534444,-0.310608,-0.681098,0.886914,-76.360448,-120.799355,1.09,3.284246354141237,1.991139823165878,-8.933529093594526,-0.005726110634482754,-0.031135179064102757,0.06097051579577639,3.8406915926805487,2.317101026433893,0.06869928321864135
9.509118,0.043198,2.287209,0.000331,0.002136,0.002963,0.39243,-0.534428,-0.310649,-0.681089,0.90104,-76.3614,-120.809179,1.1,3.291586833964992,1.9961171406358345,-8.959179785485462,-0.005396871008425952,-0.03120885463446722,0.06093839091381635,3.849549002762773,2.2876168990643952,0.06867755318473416
9.499484,0.001794,2.283473,0.000661,0.004271,0.005927,0.392447,-0.534407,-0.310681,-0.681081,0.910074,-76.361027,-120.813539,1.11,3.298590201935065,2.0013549499945933,-8.98402097758924,-0.005437218198112161,-0.0311017985123997,0.06047803974997274,3.858253355622188,2.283473704723792,0.06822373856979015
9.522333,0.020867,2.322052,-0.001074,0.003644,0.012689,0.392483,-0.534404,-0.310688,-0.68106,0.900501,-76.361273,-120.799937,1.12,3.304872662241346,2.0065723406926272,-9.00679869633633,-0.005861368368987537,-0.030780578712820476,0.05960540670765584,3.866331060846043,2.3221457582143716,0.06733946965812969
9.503311,0.035229,2.356809,0.003998,0.002864,0.013401,0.392532,-0.534393,-0.310715,-0.681028,0.893851,-76.361773,-120.786191,1.1300000000000001,3.3101410611200817,2.0115188660063676,-9.02645699764858,-0.006665976713739192,-0.030218123552753485,0.05834212649675618,3.8734018630672344,2.357072282498354,0.0660406992752279
9.474455,0.00984,2.231003,0.021408,-0.000518,0.011785,0.392623,-0.534356,-0.310812,-0.68096,0.899136,-76.364288,-120.773912,1.1400000000000001,3.3142020629539,2.0159866844217684,-9.042182102043842,-0.007829879695612557,-0.0293954658154099,0.056714727113758134,3.87919290907964,2.2310246999101104,0.0643580663020631
9.453655,0.056125,2.250213,0.037814,-0.002719,0.008669,0.392738,-0.53429,-0.310977,-0.68087,0.923244,-76.367944,-120.771879,1.1500000000000001,3.3169644225207753,2.0198190238530773,-9.053429502736348,-0.009314678768372772,-0.028303025743692978,0.054753773248059835,3.883545013178987,2.2509128283862974,0.06233618685567858
9.454703,-0.008129,2.314445,0.031055,-0.002055,-0.001757,0.392806,-0.534219,-0.311146,-0.68081,0.966132,-76.371225,-120.792667,1.16,3.318434824375284,2.0229147848526354,-9.05993381853216,-0.011066137223650819,-0.026941367586683515,0.052492983816998844,3.886411443787444,2.3144592756551154,0.060031741857996875
9.518711,-0.016907,2.405513,0.01125,-0.003569,0.000694,0.392821,-0.534195,-0.311243,-0.680775,0.993917,-76.375291,-120.810078,1.17,3.3187081113537795,2.025229349915241,-9.061702185850697,-0.013016322342307802,-0.025321396073703824,0.04996835745141838,3.8878499775741706,2.4055724141704817,0.057510299015332576
9.549961,0.010241,2.341036,-0.014624,0.009088,0.017981,0.392845,-0.534207,-0.311179,-0.680781,0.964983,-76.372197,-120.784731,1.18,3.3179529870496345,2.0267718890330335,-9.05899287305891,-0.01508638950283862,-0.02346399111683449,0.047217335304650276,3.8880092996861677,2.341058399821969,0.054841907157155104
9.482006,0.078792,2.22064,-0.017353,0.014265,0.032913,0.392922,-0.534229,-0.311058,-0.680775,0.899556,-76.36635,-120.723093,1.19,3.31639444427438,2.027599633570366,-9.052281508904464,-0.017189874692782187,-0.021399111287545493,0.04427802031034997,3.887111058880188,2.22203739591934,0.0520956508592999
9.439936,0.070995,2.217756,-0.01445,0.00396,0.032279,0.39299,-0.534279,-0.31097,-0.680737,0.837318,-76.36641,-120.66273,1.2,3.3142942485582965,2.0278097270259545,-9.042217820134276,-0.019236338980022756,-0.019164428426738083,0.04118845876690713,3.885429018145574,2.2188920581139135,0.049333570617492495
9.436152,0.031352,2.301719,-0.00773,0.001654,0.030753,0.393065,-0.534322,-0.310912,-0.680686,0.782991,-76.367739,-120.60684,1.21,3.311930805568714,2.027529354897477,-9.029576067825754,-0.021135195155779513,-0.01680358420696957,0.03798598064996888,3.883266787879248,2.3019325148372616,0.04660463112624552
9.424613,0.018523,2.282894,0.004916,0.004156,0.029108,0.393172,-0.534328,-0.310897,-0.680627,0.740116,-76.367485,-120.555395,1.22,3.309579672103033,2.0269049069316694,-9.015202468102263,-0.0227995441137198,-0.014364179697990902,0.03470659637300496,3.8809355969587154,2.282969144943707,0.04393969392233303
9.415916,0.008958,2.229575,0.012412,-0.002298,0.023884,0.393271,-0.534334,-0.310934,-0.680548,0.713659,-76.37101,-120.516308,1.23,3.3074958311815075,2.026090926898331,-8.999962795063174,-0.024149855467559798,-0.011895616675692616,0.031384461841046936,3.878733442419418,2.229592995680826,0.04134858716148806
9.468486,-0.012054,2.301183,0.015507,-0.011286,0.016487,0.393339,-0.534353,-0.311017,-0.680455,0.70614,-76.379587,-120.495114,1.24,3.3058986439091473,2.0252395510180765,-8.984693105234312,-0.025117340171499785,-0.009446904012967598,0.028051444874494257,3.876926757472759,2.3012145702661018,0.03882020520641088
9.496389,-0.021454,2.318943,0.02377,-0.014294,0.014956,0.39342,-0.534363,-0.31114,-0.680344,0.70761,-76.389918,-120.478067,1.25,3.3049601315803017,2.024491029842983,-8.970156110768436,-0.025646878706296224,-0.007064528323068142,0.024736843145095402,3.875735465850319,2.3190422400993476,0.03632604240194569
9.534964,0.04416,2.291121,0.027944,-0.014726,0.011929,0.393502,-0.534362,-0.311286,-0.680231,0.718425,-76.400401,-120.46807,1.26,3.304796964752429,2.0239657854196897,-8.957005192659924,-0.025699384363077168,-0.004790472221989296,0.021467305370227032,3.875321983885521,2.2915465394010655,0.03382679678316297
9.504881,0.049302,2.305146,0.026835,-0.012716,0.012663,0.393586,-0.534357,-0.311423,-0.680124,0.72702,-76.409812,-120.456549,1.27,3.3054662781497512,2.0237582976517787,-8.945757430965024,-0.025253497224821286,-0.002660452528990602,0.01826698778731764,3.875784431995618,2.305673170360448,0.031280984200710196
9.503312,0.079706,2.28899,0.026709,-0.008914,0.012614,0.393682,-0.534337,-0.311555,-0.680023,0.734888,-76.417008,-120.443322,1.28,3.306965215912345,2.0239329623445017,-8.9367763922119,-0.024306522377680922,-0.000702447323382367,0.015157938959550218,3.8771540561755824,2.2903773196868675,0.028654206948374627
9.508083,0.050872,2.269131,0.030653,-0.004718,0.011772,0.393785,-0.534296,-0.311691,-0.679933,0.74754,-76.421832,-120.433724,1.29,3.3092339472740893,2.02452193596924,-8.93026480878871,-0.02287454828632759,0.001064416621293956,0.012160656723332308,3.8793966524463426,2.2697011819940083,0.025927967795219636
9.49389,0.037688,2.283979,0.029001,-0.003189,0.014015,0.393899,-0.534254,-0.311816,-0.679843,0.753975,-76.425647,-120.41791,1.3,3.3121617681352458,2.025524888862789,-8.92626675080378,-0.02099171066710643,0.002630541375182119,0.009294714085310683,3.8824176299954405,2.2842899241963575,0.02310764753465241
9.514215,0.054216,2.356079,0.024386,-0.004063,0.016319,0.394002,-0.53423,-0.311918,-0.679756,0.752222,-76.43013,-120.397188,1.31,3.315595801170513,2.0269105290269294,-8.924678446388514,-0.01870860519380536,0.003996029259655036,0.0065793183028484735,3.8860702270313854,2.3567027026965026,0.02023036300890068
9.51982,0.058272,2.287311,0.02405,0.001397,0.02074,0.394132,-0.534197,-0.311994,-0.679672,0.73738,-76.431559,-120.362949,1.32,3.3193517125110286,2.0286197226590366,-8.92526655166154,-0.01608989876422267,0.005170293401824356,0.004033658020747434,3.8901662908558454,2.288053154256911,0.017374900665391522
9.518788,0.023196,2.33703,0.0214,0.004107,0.021476,0.394257,-0.534159,-0.312055,-0.679601,0.721415,-76.431396,-120.329366,1.33,3.323225776679146,2.030570010450695,-8.927692397479328,-0.013211241145955292,0.00617108471170831,0.001676910816900421,3.8944889433822314,2.3371451121648392,0.014677575038932683
9.524254,0.026934,2.268837,0.023924,0.0052,0.02069,0.394393,-0.534112,-0.312126,-0.679526,0.707002,-76.430669,-120.295399,1.34,3.327007556710475,2.032661289184936,-8.93154053896322,-0.010155631441334365,0.007022958606950464,-0.00047217394252853313,3.8988063813120513,2.268996864899773,0.01235644551637572
9.508048,0.043682,2.269427,0.02327,0.005551,0.02444,0.394536,-0.53407,-0.312183,-0.67945,0.685035,-76.429695,-120.25454,1.35,3.330492441375236,2.0347823922139505,-8.936349805159905,-0.007009440271767947,0.007755259455314447,-0.0023961406996737683,3.9028860200781557,2.269847357302468,0.010724634837390015
9.482142,0.01944,2.266004,0.024478,0.002712,0.021477,0.394666,-0.534031,-0.312257,-0.679371,0.671367,-76.430251,-120.221542,1.36,3.333493308772178,2.036818261452313,-8.94164499629595,-0.003858322217383297,0.00839975599312214,-0.004080094795753153,3.9065081940032464,2.266087386138496,0.01010394599250594
9.506111,0.071543,2.254991,0.023916,0.005203,0.020697,0.394797,-0.533983,-0.312327,-0.6793,0.658666,-76.429447,-120.189834,1.37,3.335850666818471,2.038657360340808,-8.946967412912926,-0.0007832686758233008,0.008988108099895819,-0.0055132550225830655,3.909478674220514,2.2561256194924075,0.010573342800551593
9.470427,0.006475,2.247789,0.019846,0.004813,0.02149,0.394918,-0.53395,-0.312378,-0.679233,0.64035,-76.428982,-120.155268,1.3800000000000001,3.337440746696207,2.0401989349513556,-8.951902528804368,0.0021429539625399717,0.009549376152282314,-0.006690619064397681,3.911639353504459,2.2477983259505288,0.011855261281314115
9.465779,0.033207,2.267312,0.017318,0.003723,0.022279,0.395034,-0.533923,-0.312424,-0.679166,0.620156,-76.42903,-120.11974,1.3900000000000001,3.3381811784909083,2.041359695188603,-8.9561033349847,0.004858762444248887,0.0101077927101246,-0.007614534140015096,3.9128765615045227,2.2675551614443696,0.013555669519796759
9.477225,0.041233,2.286713,0.012597,0.003687,0.026819,0.395157,-0.533911,-0.312444,-0.679095,0.586254,-76.429076,-120.0724,1.4000000000000001,3.3380340412957255,2.0420794710030687,-8.9593081743716,0.007315938323299281,0.01068099967276434,-0.008295956731586517,3.9131266049977538,2.287084717420411,0.015376267611233447
9.484466,0.013266,2.233735,0.014125,0.005957,0.024525,0.395276,-0.533886,-0.312468,-0.679033,0.55885,-76.42785,-120.031337,1.41,3.337006239411586,2.04232541353182,-8.96135224021378,0.009480920663166846,0.011278913297629872,-0.008755204448779443,3.9123782711580652,2.233774392587801,0.017139292480631847
9.505637,0.062097,2.257267,0.012474,0.00749,0.026765,0.395401,-0.533864,-0.312477,-0.678974,0.524282,-76.425785,-119.983968,1.42,3.335147304835408,2.0420943697737948,-8.962172305552718,0.011335166005720118,0.011903319395956086,-0.009022046540620625,3.9106721877463366,2.2581209769846255,0.018750261992849643
9.517032,0.069885,2.276933,0.010053,0.00557,0.025318,0.395511,-0.53385,-0.312487,-0.678917,0.492686,-76.424773,-119.940991,1.43,3.3325448614402244,2.041413166574634,-8.961804664345111,0.012874602200355394,0.012548229343530337,-0.009135040978933022,3.9080971034732386,2.2780052238118333,0.020165872536590558
9.512844,0.031229,2.362026,-0.001294,0.020576,0.031929,0.395638,-0.533818,-0.31241,-0.678903,0.437675,-76.415233,-119.880509,1.44,3.329318106048244,2.0403366907434983,-8.960376675577674,0.01410826800518548,0.013200953431075205,-0.009140097586565546,3.904783331102354,2.362232434608627,0.021374044574845864
9.529543,0.043369,2.314355,0.005853,0.019563,0.031139,0.395779,-0.533774,-0.312362,-0.678877,0.389689,-76.406212,-119.823143,1.45,3.3256097616626907,2.038943833486253,-8.958092689044642,0.015056284883739854,0.013843780437182726,-0.009088320553464207,3.9008937748902874,2.3147613130052958,0.022381678707723788
9.495638,0.044236,2.209623,0.018492,0.022035,0.029503,0.395953,-0.533694,-0.312356,-0.678841,0.351986,-76.3958,-119.768869,1.46,3.32157703274276,2.037331560051129,-8.955215474496452,0.01574734665134029,0.01445609847752955,-0.009033252831456727,3.8966131280927243,2.210065751470983,0.023206838786584683
9.465421,-0.01658,2.291208,0.031486,0.010136,0.030338,0.396144,-0.53363,-0.312416,-0.678753,0.320835,-76.392159,-119.71371,1.47,3.3173821374920904,2.035607549203193,-8.952044551662235,0.01621593372330089,0.015016757264856948,-0.00902770332483371,3.8921359612074986,2.2912679886176566,0.023873812694903483
9.515795,-0.007132,2.349291,0.022461,0.009711,0.02817,0.396305,-0.533584,-0.312448,-0.67868,0.287516,-76.388817,-119.66188,1.48,3.313183006325981,2.033882000669726,-8.948893002745496,0.016499460861560705,0.015506458449954824,-0.009120380953164465,3.887654514749935,2.3493018256718314,0.024410321815027225
9.466601,-0.051757,2.308375,0.021465,0.010891,0.026662,0.396459,-0.533531,-0.312483,-0.678616,0.259358,-76.384718,-119.615706,1.49,3.309124718250042,2.0322593086613745,-8.94606441939561,0.016635552185112996,0.015909968397034603,-0.009352585120804464,3.8833470484331203,2.3089551593034456,0.024846318426280996
9.487717,-0.002733,2.332393,0.012436,0.013434,0.022193,0.396579,-0.533485,-0.31249,-0.678579,0.233657,-76.379453,-119.577555,1.5,3.305332196587435,2.0308303243391577,-8.943831579164293,0.016659608997272406,0.016217973348227964,-0.00975520954997515,3.879367569083008,2.3323946012066656,0.02521367376702091
9.487418,-0.004789,2.333605,0.007271,0.012099,0.026005,0.396694,-0.533455,-0.312475,-0.678542,0.198957,-76.374651,-119.533016,1.51,3.3019046033268062,2.0296658700311765,-8.94241826194988,0.01660280027533969,0.016428435071034676,-0.010346306257386964,3.8758376582927423,2.3336099139629143,0.025545890257293178
9.499915,0.03639,2.304139,0.00837,0.010086,0.025281,0.396809,-0.53343,-0.312469,-0.678497,0.165163,-76.37112,-119.488666,1.52,3.2989117626778612,2.0288120327443724,-8.941985321250497,0.01649056737600369,0.016547349855671554,-0.011129428262325465,3.8728409575068667,2.3044263415047572,0.02587697380055789
9.4853,0.021502,2.320374,0.007711,0.010446,0.029033,0.396933,-0.533409,-0.312451,-0.678449,0.123623,-76.367256,-119.436827,1.53,3.29639281578902,2.028287579283026,-8.942621749920765,0.01634169628880562,0.016588860338684938,-0.012092922072616946,3.870420661925427,2.320473623181268,0.026238904115575095
9.485056,0.018915,2.321392,0.009688,0.011056,0.029761,0.397067,-0.533389,-0.312434,-0.678395,0.078743,-76.363349,-119.380672,1.54,3.294357163216422,2.028083630075656,-8.94434106739507,0.016167973213388923,0.016574715127371405,-0.013210273777445837,3.8685801438533236,2.321469059644991,0.026657754456395035
9.489249,-0.01199,2.303464,0.009242,0.012712,0.026739,0.397191,-0.533354,-0.312422,-0.678355,0.043544,-76.358168,-119.334455,1.55,3.2927875903748953,2.0281655294900993,-8.947082948984441,0.01597440248718881,0.016533114201586447,-0.014441528771612517,3.8672865849764437,2.303495204986544,0.027149275373142386
9.487322,0.016519,2.289595,0.007039,0.016742,0.028194,0.39732,-0.533315,-0.312389,-0.678325,0.001868,-76.350821,-119.283247,1.56,3.291645298521111,2.0284766750846073,-8.9507196557606,0.01575993107094039,0.01649701789889632,-0.015735712282875593,3.8664772587768357,2.289654589973343,0.02771533272336343
9.491454,-0.014423,2.271897,0.00319,0.011725,0.026803,0.397427,-0.533296,-0.312359,-0.678291,-0.036878,-76.346191,-119.236945,1.57,3.29087639403985,2.0289439271100718,-8.95506653159434,0.015518593122375631,0.01650203310425111,-0.017034086905360686,3.866067886135158,2.2719427813081032,0.028342617129881006
9.460836,-0.010809,2.288066,0.005389,0.007696,0.025352,0.39753,-0.533283,-0.312349,-0.678245,-0.071141,-76.343897,-119.193619,1.58,3.2904192450617753,2.0294841164659916,-8.959895624563991,0.015240964036210766,0.0165840205184803,-0.018274006014594366,3.865962310636337,2.2880915311317858,0.029004413752597664
9.502597,-0.009328,2.292542,0.003738,0.006271,0.029891,0.39764,-0.533286,-0.312324,-0.67819,-0.116833,-76.342373,-119.139846,1.59,3.2902120217703636,2.0300111040897715,-8.964951365013901,0.014915797380707455,0.016776589258670916,-0.019393067985179722,3.866062626359019,2.292560977018496,0.029665232925670318
9.502462,-0.011885,2.293092,0.002417,0.005303,0.025415,0.397728,-0.533293,-0.312302,-0.678143,-0.155173,-76.341623,-119.095148,1.6,3.29019971345655,2.0304428162690624,-8.969967187346812,0.014531711265312353,0.017108656876587695,-0.020333251299779337,3.8662788549932876,2.2931227995223025,0.030287256079730884
9.49945,-0.016791,2.32789,0.001865,0.004829,0.026929,0.39782,-0.5333,-0.312281,-0.678093,-0.194948,-76.340913,-119.048566,1.61,3.290339968033117,2.0307076889854803,-8.974682008979231,0.014078793235238097,0.017602251845715313,-0.02104471619095363,3.8665373169466406,2.3279505556993687,0.030837181592330388
9.500715,0.014117,2.278696,0.001424,0.003519,0.026204,0.397905,-0.533313,-0.312261,-0.678043,-0.233785,-76.341053,-119.003728,1.62,3.2906072231318184,2.0307500027864283,-8.97885556791116,0.013550004944463963,0.018270720468065913,-0.021488991887260164,3.8667869699201654,2.278739728469445,0.031292149698413714
9.505045,-0.016549,2.260023,0.004612,0.004239,0.021668,0.397986,-0.533309,-0.312264,-0.677997,-0.259585,-76.340681,-118.969909,1.6300000000000001,3.290994777488742,2.030533680728599,-8.982281759837663,0.012942289075500069,0.019117471496748504,-0.021641324770617386,3.867003187745183,2.260083589146649,0.03164375927051237
9.473091,0.018288,2.260195,0.00208,0.000193,0.024754,0.398061,-0.533332,-0.312254,-0.67794,-0.295764,-76.342786,-118.927735,1.6400000000000001,3.291514665509903,2.03004425457917,-8.984799296141402,0.012257309496231186,0.02013535187455695,-0.021492035257679867,3.867188703543786,2.2602689859768903,0.03189955502379269
9.45858,0.003674,2.275761,-7e-06,0.006354,0.021668,0.398133,-0.533329,-0.312237,-0.677907,-0.324186,-76.341193,-118.893942,1.6500000000000001,3.292195420387326,2.0292888697261127,-8.986299213307417,0.011501788459536422,0.02130669955693423,-0.021046812831470373,3.8673717176932403,2.2757639656601034,0.03208169126059804
9.51632,-0.012475,2.280161,0.006923,0.005299,0.013381,0.398198,-0.533301,-0.312271,-0.677875,-0.329231,-76.340195,-118.879544,1.6600000000000001,3.2930780141460003,2.028294379379213,-8.986728987449368,0.010687438113019782,0.0226040688301572,-0.020325962222408612,3.8676014397392438,2.2801951257613897,0.03222281802333393
9.500287,0.004876,2.280519,0.010988,0.00271,0.014897,0.39827,-0.533279,-0.312317,-0.677829,-0.335434,-76.340709,-118.862133,1.67,3.294210422437714,2.0271037509825662,-8.986093227911933,0.009830514224482547,0.02399157433534441,-0.01936269259462372,3.867941561676553,2.28052421270571,0.03235967418748228
9.504593,-0.024632,2.261851,0.012529,0.00497,0.012599,0.398347,-0.533238,-0.312374,-0.67779,-0.334391,-76.339755,-118.850482,1.68,3.2956413628945356,2.025771151770338,-8.984451125187507,0.008951045100382105,0.025426756240741415,-0.018200609883749868,3.868462323994674,2.2619851196736462,0.03252542607646532
9.485649,-0.009558,2.296557,0.013516,0.003791,0.014114,0.398425,-0.533205,-0.312429,-0.677745,-0.337283,-76.339653,-118.834988,1.69,3.297413795778739,2.0243561830626815,-8.981910998851884,0.008071806420682361,0.02686283395243812,-0.016890625542645348,3.8692319259119197,2.2965768895495313,0.03274231418319565
9.485591,-0.010528,2.296793,0.012634,0.001169,0.012662,0.398497,-0.533175,-0.312496,-0.677695,-0.335828,-76.340867,-118.823386,1.7,3.2995587622148648,2.0229177891519265,-8.978622425631055,0.00721712254376821,0.02825119166898961,-0.01548752988811915,3.87030805065646,2.2968171289053467,0.033016363678714515
9.501479,-0.029879,2.296997,0.011646,0.002348,0.011148,0.398558,-0.533146,-0.312555,-0.677654,-0.332819,-76.341601,-118.815067,1.71,3.302090080787537,2.0215083764962745,-8.97476652574307,0.006411577420152221,0.029543927227566835,-0.014046493617726342,3.8717302356801726,2.297191322604628,0.03333550575580334
9.489896,-0.040878,2.278075,0.004496,0.000421,0.01423,0.398611,-0.533146,-0.312583,-0.677611,-0.343808,-76.34356,-118.796548,1.72,3.3050003391258156,2.0201686453536825,-8.970545047725853,0.005678715257648675,0.030696296537961854,-0.012619756630933912,3.873513727520775,2.2784417298910675,0.0336714817842628
9.485501,-0.013739,2.297145,0.002406,0.000654,0.015742,0.398661,-0.533148,-0.312602,-0.677571,-0.356955,-76.345248,-118.777051,1.73,3.308258511525125,2.0189235644089423,-8.966168916910734,0.005039804494641189,0.03166889920210366,-0.01125373950552151,3.8756453318130317,2.2971860854414907,0.03398478275457036
9.525963,-0.044299,2.350682,0.007688,0.001136,0.009693,0.39871,-0.533125,-0.312659,-0.677534,-0.351964,-76.346551,-118.772039,1.74,3.3118094127311126,2.017779816875939,-8.961846899499816,0.004512730078473272,0.03242947549417538,-0.009986771094524612,3.878081610235439,2.351099374021651,0.03423114386757929
9.485391,-0.01569,2.297589,0.009449,0.006382,0.0126,0.398777,-0.533089,-0.312699,-0.677505,-0.353585,-76.344968,-118.760251,1.75,3.315575067304038,2.016724922322491,-8.957774984871604,0.004111069389141322,0.03295421852478177,-0.008847568241129719,3.8807495975964272,2.297642572077084,0.034368021093494044
9.521386,-0.017572,2.370508,0.010106,0.003053,0.011149,0.398842,-0.533058,-0.312755,-0.677465,-0.352134,-76.345181,-118.750162,1.76,3.319457939629818,2.015728101046271,-8.954127009223209,0.0038433965665011895,0.03322854507113124,-0.007854534903378176,3.88355002418136,2.3705731275891915,0.03435988392384321
9.489552,-0.045865,2.27941,0.007581,0.004938,0.009633,0.398892,-0.533026,-0.312799,-0.67744,-0.347848,-76.344436,-118.745554,1.77,3.3233458386536316,2.0147428081058507,-8.951046942450041,0.003712848235767706,0.03324731062554234,-0.007015874472707806,3.886362842827553,2.2798713881105224,0.034181740746631634
9.454716,-0.012034,2.313991,0.004609,0.002549,0.009692,0.398927,-0.53301,-0.312836,-0.677415,-0.345914,-76.345132,-118.740685,1.78,3.3271181914180645,2.0137107347200423,-8.948643146152385,0.0037169703484956095,0.03301449490864244,-0.0063304388197966514,3.8890546901260907,2.314022291430444,0.033820810136594326
9.470573,-0.031443,2.314263,0.000541,0.002177,0.010475,0.398956,-0.533003,-0.312859,-0.677393,-0.347686,-76.345966,-118.733993,1.79,3.330653277806088,2.0125669668318116,-8.946984791194446,0.0038478510146074648,0.03254241984682952,-0.005789178783192797,3.8914877685716855,2.3144765921084622,0.03327656289194708
9.440186,-0.026296,2.32948,-0.004849,-0.00213,0.009078,0.398961,-0.533017,-0.312878,-0.67737,-0.348949,-76.349226,-118.730757,1.8,3.333835941425631,2.0112459100830975,-8.946100502905333,0.004092528308797917,0.031850589915643435,-0.005377019641632411,3.8935295292532857,2.3296284145794584,0.032559502547786265
9.470586,-0.033443,2.314182,-0.000452,0.000392,0.011262,0.398987,-0.53302,-0.3129,-0.677343,-0.353175,-76.35108,-118.722125,1.81,3.3365652426144408,2.009687537673973,-8.945979182795735,0.004433646216375035,0.03096426285993803,-0.005074964339756154,3.8950624664188425,2.3144236352433407,0.031689084181798485
9.473524,-0.031953,2.27977,-0.00276,-0.002363,0.007567,0.398987,-0.533034,-0.312925,-0.67732,-0.351403,-76.354682,-118.721779,1.82,3.338761502676207,2.0078434912509615,-8.94657283905741,0.004850317641024377,0.029912866313359827,-0.004862226118787237,3.8959933081451172,2.27999391383157,0.030691145223500315
9.489523,-0.05134,2.279414,0.002287,-0.006134,0.010601,0.399008,-0.533051,-0.312971,-0.677273,-0.352599,-76.360277,-118.71465,1.83,3.340372207537798,2.0056825657880526,-8.947801148278552,0.005319142228265134,0.028728373130863193,-0.004718207672583224,3.8962609049699286,2.2799921006433332,0.029595171572948158
9.489655,-0.052126,2.278849,0.001412,-0.005794,0.006846,0.399015,-0.533063,-0.313023,-0.677235,-0.345155,-76.365687,-118.716815,1.84,3.3413762976250134,2.003195139862765,-8.949557376639724,0.005815319800485043,0.027443736758381167,-0.0046241722270283355,3.8958421850352263,2.2794450826192327,0.0284316654529849
9.498428,-0.04528,2.331677,0.002838,-0.005661,0.009088,0.399033,-0.533076,-0.313074,-0.677191,-0.342456,-76.371017,-118.713369,1.85,3.3417864698731714,2.0003961734390288,-8.951715222794311,0.006313798003063783,0.026091469886071944,-0.004564489671584344,3.894755661262578,2.3321166160226636,0.02722982577985565
9.531818,-0.049673,2.281707,0.004383,-0.003405,0.006788,0.399055,-0.533074,-0.313133,-0.677152,-0.334612,-76.375162,-118.713874,1.86,3.3416492535876445,1.9973264828965673,-8.95413611819923,0.006790395238557578,0.024702427503642824,-0.0045273853216908615,3.8930621383793547,2.282247629153769,0.026015699297147806
9.505937,-0.072675,2.277252,0.0025,-0.010774,0.008424,0.399062,-0.533104,-0.313194,-0.677096,-0.330607,-76.383423,-118.711973,1.87,3.3410427854400586,1.994052112126505,-8.956676539093325,0.007222846440627672,0.02330483183482431,-0.004505167386758186,3.890862464803561,2.2784113603844673,0.02481090951047619
9.503202,-0.075878,2.310825,0.0013,-0.004954,0.009087,0.399073,-0.533122,-0.313233,-0.677058,-0.329916,-76.388507,-118.708409,1.8800000000000001,3.340072387447288,1.9906617445384494,-8.959194943722299,0.007591728512377679,0.021923553812076595,-0.004493958487654092,3.8882923931408104,2.312070425291799,0.02363201676635798
9.484516,-0.060758,2.34459,-0.003321,-0.005797,0.011385,0.399082,-0.533151,-0.313257,-0.677019,-0.336187,-76.393907,-118.699367,1.8900000000000001,3.33886422986813,1.987262239945899,-8.961558036760254,0.007881232776622735,0.02057964578038065,-0.004493002535356209,3.8855148379343105,2.345377113102283,0.022490502935860926
9.52949,-0.055685,2.313536,-0.003321,-0.005796,0.011385,0.399094,-0.533179,-0.313281,-0.676977,-0.3433,-76.399347,-118.689117,1.9000000000000001,3.337557521571189,1.9839725258319443,-8.963646163386843,0.008079762046450997,0.019290104530991534,-0.00450365642993001,3.8827100320591033,2.3142060501435475,0.021393307569955142
9.503532,-0.079178,2.309357,-0.005403,-0.002599,0.010595,0.3991,-0.5332,-0.313294,-0.676951,-0.348861,-76.402917,-118.682033,1.9100000000000001,3.3362957970406204,1.9809162132286204,-8.965357730177548,0.008180338858149193,0.01806783347612702,-0.004528202111708809,3.880064263537774,2.3107139392692035,0.020343774593710135
9.518081,-0.067979,2.29375,-0.006397,-0.004382,0.011383,0.399109,-0.533227,-0.31331,-0.676918,-0.356492,-76.407427,-118.672382,1.92,3.33521794821258,1.9782134300944554,-8.966612623605618,0.00818081853211349,0.01692176801947703,-0.004568625351704437,3.8777580039354445,2.294757112842446,0.01934281164579244
9.460385,-0.054564,2.289305,-0.004869,-0.008052,0.013687,0.399119,-0.53327,-0.313327,-0.67687,-0.369167,-76.414109,-118.657665,1.93,3.3344496718966754,1.975972457194102,-8.967354641420057,0.00808390602462766,0.01585712850674711,-0.004625502069271732,3.8759543039103987,2.289955155264181,0.018390033455307805
9.476495,-0.074327,2.288378,-0.004105,-0.01222,0.009995,0.399113,-0.533322,-0.313363,-0.676816,-0.373995,-76.423247,-118.650622,1.94,3.334095966166788,1.9742818014251167,-8.967552968825983,0.007896979359923579,0.014875769401937836,-0.004697112053435516,3.8747883223536292,2.2895847601285695,0.017484669283495704
9.473947,-0.01355,2.256641,-0.005643,-0.011513,0.009995,0.399102,-0.533373,-0.313394,-0.676768,-0.378429,-76.431925,-118.644839,1.95,3.334235214044248,1.9732033382394913,-8.967202728692971,0.0076317255482100796,0.01397659975131177,-0.0047788671503828616,3.874358769733666,2.2566816801181773,0.016626068287258388
9.445284,-0.039491,2.285962,-0.00917,-0.014372,0.011569,0.399085,-0.533442,-0.313416,-0.676714,-0.388979,-76.442203,-118.63457,1.96,3.334915248041315,1.9727670910206536,-8.966324623044404,0.007303598464410904,0.013156056471680718,-0.004863101230996069,3.8747218877014333,2.2863030867592773,0.015813732196996156
9.487589,-0.036768,2.288252,-0.009392,-0.01736,0.006362,0.399043,-0.533514,-0.313456,-0.676663,-0.387037,-76.454245,-118.637556,1.97,3.3361516079816864,1.972968092447557,-8.964963670061167,0.006931113461442572,0.012408616584653897,-0.004939228036342378,3.875888368523395,2.288547377995046,0.015046929020744691
9.512609,-0.048954,2.183169,0.006844,-0.027738,0.012431,0.399052,-0.533598,-0.313557,-0.676545,-0.390693,-76.472231,-118.624785,1.98,3.337928004685877,1.9737656031330633,-8.96318703352628,0.006535001298209954,0.011727335901879915,-0.004994235228049609,3.8778233611882666,2.183717787782341,0.014324071866484721
9.458386,0.032152,2.234053,0.012577,-0.02299,0.004799,0.399054,-0.533643,-0.313687,-0.676448,-0.372516,-76.487506,-118.631522,1.99,3.3401988046364584,1.9750847663371724,-8.961080946977441,0.006137254007319505,0.011104399544871989,-0.00501345228461503,3.880449444163909,2.234284350281539,0.01364215084994387
9.502262,-0.058809,2.315699,0.010157,-0.026609,-0.008645,0.399004,-0.533683,-0.313853,-0.676369,-0.324658,-76.504897,-118.669593,2.0,3.3428931780606876,1.9768205769979998,-8.958746759703098,0.005760106334780289,0.010531664835003235,-0.004981508558781631,3.8836521978116667,2.316445630072504,0.012996546337625021
9.596896,-0.074071,2.389579,-0.007422,-0.021421,-0.00259,0.39893,-0.533751,-0.313931,-0.676322,-0.300176,-76.519292,-118.694597,2.0100000000000002,3.34592042529171,1.9788438587024553,-8.956296180516752,0.005425006620275722,0.010001171044846104,-0.004883387199177396,3.8872878089368013,2.3907267326656134,0.012381501913556093
9.604354,-0.036606,2.269937,-0.020471,-0.006925,0.010789,0.39889,-0.53382,-0.313898,-0.676307,-0.316511,-76.525525,-118.685714,2.02,3.3491759282368654,1.9810087895939594,-8.953845866767354,0.005151638615746149,0.009505584997865786,-0.0047054814007879715,3.891192005379559,2.270232143020841,0.011791398635957462
9.536479,-0.000306,2.196934,-0.019812,-0.005588,0.019028,0.398881,-0.533893,-0.313845,-0.676279,-0.350603,-76.530779,-118.657785,2.0300000000000002,3.3525471730568355,1.9831614120479337,-8.95151159199953,0.004957058629791591,0.009038548151234399,-0.004436570799406555,3.8951895632699745,2.1969340213106086,0.011222786792928081
9.481697,-0.049501,2.222806,-0.021489,-0.014631,0.016188,0.398841,-0.533999,-0.313808,-0.676236,-0.380272,-76.541322,-118.636089,2.04,3.355919358462222,1.9851485139009672,-8.949402312753715,0.004855008034530681,0.008594891304948156,-0.004068654351667589,3.8991036614515275,2.223357115408364,0.010676947494137754
9.493563,-0.106152,2.305526,-0.017303,-0.010437,0.02285,0.398845,-0.534089,-0.313764,-0.676183,-0.422224,-76.549332,-118.598601,2.05,3.3591802332620797,1.9868262848821279,-8.947614528325861,0.004855447617546863,0.008170689693742269,-0.003597595854141046,3.9027644722474863,2.30796845380954,0.0101625901013423
9.457502,-0.107366,2.232112,-0.006092,-0.01112,0.021272,0.398873,-0.534156,-0.313765,-0.676114,-0.453252,-76.557733,-118.565396,2.06,3.3622239727494256,1.9880682183026284,-8.946227370731398,0.004964337730713236,0.007763146244640741,-0.0030235534295973117,3.9060165493192573,2.234692694421316,0.009698090743125285
9.473672,-0.128074,2.230675,-0.002381,-0.018827,0.022123,0.398901,-0.534244,-0.313789,-0.676016,-0.485167,-76.570543,-118.529441,2.07,3.3649540691747015,1.9887718201576867,-8.945298856535647,0.00518366016201457,0.007370314681261405,-0.0023511721960460486,3.90872475883231,2.234348653433703,0.009312351038891001
9.474142,-0.129625,2.228587,0.009802,-0.025356,0.012365,0.39892,-0.534312,-0.313896,-0.675901,-0.48638,-76.58705,-118.517406,2.08,3.367285343516776,1.9888637823286561,-8.944863659490538,0.005511650225424751,0.006990703614343584,-0.0015895221459880631,3.9107786602314305,2.2323536138331668,0.009042942324465397
9.505049,-0.136518,2.210703,0.011107,-0.02905,0.007158,0.398917,-0.534384,-0.314027,-0.675786,-0.47489,-76.605787,-118.518132,2.09,3.369145268842117,1.9883033632949556,-8.944932617312672,0.005943187238237447,0.00662283082365057,-0.0007517667815074681,3.9120953601684167,2.214914201167395,0.008930202459139582
9.501476,-0.108557,2.227011,0.009016,-0.028813,0.008676,0.398913,-0.53446,-0.314147,-0.675672,-0.467137,-76.624231,-118.516108,2.1,3.370474831900067,1.9870838010388787,-8.945493984119212,0.006470282877928545,0.006264815339127438,0.00014544153920250085,3.9126209406001626,2.2296552685045286,0.009007420551695547
9.482077,-0.061916,2.243303,0.011209,-0.029887,0.004921,0.398902,-0.534531,-0.314285,-0.675558,-0.450178,-76.643458,-118.522394,2.11,3.3712291573513027,1.9852316661870462,-8.946516220116083,0.007082611096407223,0.005914096944573356,0.0010828228792963393,3.912330609727068,2.244157289689161,0.00929044821312138
9.514387,-0.035331,2.175672,0.005833,-0.026554,0.010924,0.398906,-0.534609,-0.314386,-0.675446,-0.450879,-76.660826,-118.512923,2.12,3.3713780842263734,1.9828041561801117,-8.947951919493148,0.0077680381033626116,0.005567355317424997,0.0020395411324954375,3.91122774951383,2.1759588532748038,0.009772286796696799
9.512174,-0.038602,2.207524,0.011881,-0.025587,0.010858,0.398923,-0.534674,-0.314502,-0.675331,-0.447779,-76.677563,-118.50457,2.13,3.3709068204978254,1.9798844389339147,-8.949742356786981,0.008513131558605214,0.005220666021118658,0.0029944057930071295,3.90934203978258,2.207861482290046,0.010425700393325027
9.538842,-0.017029,2.208824,0.014412,-0.024513,0.010068,0.398954,-0.534725,-0.314632,-0.675212,-0.441862,-76.693645,-118.496409,2.14,3.3698167129891785,1.9765752792945668,-8.951822103163844,0.009303648450762966,0.00486988471310274,0.003927095905318516,3.906726828671233,2.2088896418375,0.011211410877488406
9.535186,0.010942,2.225664,0.014421,-0.021551,0.007763,0.398974,-0.534766,-0.314757,-0.67511,-0.429735,-76.708083,-118.495838,2.15,3.368126063292341,1.9729913191409756,-8.954123226588313,0.01012501561440968,0.004511204291537316,0.004819282600239485,3.903455894926291,2.2256908968363063,0.012086868499863627
9.567301,-0.026648,2.223757,0.009273,-0.016935,0.006978,0.39898,-0.534803,-0.314855,-0.675032,-0.418272,-76.71989,-118.498274,2.16,3.3658708088469966,1.9692505186091558,-8.956578724536392,0.010962821913343914,0.004141792803255297,0.005655529389179603,3.899619713111878,2.223916660073619,0.013012414249502861
9.540087,-0.018496,2.203431,0.006108,-0.011717,0.006916,0.39899,-0.534826,-0.314934,-0.674971,-0.408655,-76.728697,-118.500018,2.17,3.3631047920292847,1.965465380895039,-8.959125014669386,0.01180333600933057,0.003760400676133564,0.006423871030561712,3.8953212968466695,2.203508628024179,0.013954406945890443
9.579552,-0.01777,2.240329,0.003036,-0.010299,0.006919,0.398998,-0.534845,-0.315006,-0.674917,-0.399486,-76.736492,-118.502107,2.18,3.359899283541108,1.9617346547460388,-8.961703493897222,0.012634050043585594,0.003367827513435432,0.007116008775719613,3.8906716709549793,2.240399473562918,0.014886203799498258
9.556337,-0.037986,2.201606,0.008112,-0.005194,0.003025,0.399011,-0.534836,-0.315089,-0.674877,-0.379136,-76.741577,-118.513698,2.19,3.3563414312866287,1.9581362198990715,-8.964261337661696,0.013444230772616065,0.0029671597622600806,0.007727106065817048,3.8857850248118204,2.201933676438053,0.015787955734499596
9.556408,-0.038363,2.201294,0.003296,-0.001388,0.007512,0.399032,-0.534832,-0.315137,-0.674846,-0.373135,-76.744593,-118.513421,2.2,3.352531383336219,1.9547218011587677,-8.96675182353146,0.014225439676990586,0.002563725935752978,0.00825521755757499,3.8807736337204264,2.2016282597670753,0.016645853585810638
9.528893,-0.0302,2.18225,0.007915,-0.000554,0.0052,0.399059,-0.534811,-0.315204,-0.674815,-0.358101,-76.747011,-118.519666,2.21,3.348577979291866,1.951514024509062,-8.969134510493467,0.014971966344314953,0.0021647588404476834,0.008700429449649234,3.875742699309895,2.182458957804247,0.017451172730247093
9.511707,-0.045381,2.231952,0.006274,0.000994,0.007443,0.399094,-0.534791,-0.315259,-0.674785,-0.349732,-76.748517,-118.519675,2.22,3.344593098682377,1.9485061311777616,-8.971375583346989,0.015681108800752443,0.0017787973114677367,0.009063824964709458,3.870785338789935,2.2324133052517405,0.01819929163696244
9.526078,-0.033799,2.216882,-0.003489,0.004777,0.008967,0.399111,-0.53478,-0.315268,-0.674779,-0.350315,-76.747866,-118.516588,2.23,3.340684966590611,1.9456644205214468,-8.973448587203626,0.016353233538978214,0.0014148970225727339,0.009346410941809335,3.865978024159937,2.2171396379851673,0.01888876857442063
9.510136,-0.016146,2.217369,-0.00349,0.004777,0.008968,0.399127,-0.534768,-0.315278,-0.674775,-0.349196,-76.747071,-118.515159,2.24,3.336950909335632,1.942933226220713,-8.975335646019895,0.01699155864020501,0.0010817463335320646,0.00954814676921995,3.8613768131158,2.2174277835990512,0.01952051092774472
9.51,-0.017135,2.217948,-0.002598,0.007398,0.010417,0.399155,-0.534749,-0.315281,-0.674771,-0.352755,-76.744913,-118.508491,2.25,3.3334701935762703,1.940241974732774,-8.977029103316278,0.01760162572636399,0.0007867961469619816,0.00966720467232902,3.857014707254349,2.218014188171257,0.02009704263230222
9.502261,-0.056474,2.180684,-0.005013,0.008447,0.006662,0.39917,-0.534727,-0.315282,-0.674779,-0.350258,-76.742236,-118.509268,2.2600000000000002,3.3302976472491785,1.937513663762248,-8.978533368806326,0.018190458562413064,0.0005355116480503731,0.009699562798456138,3.85290041612015,2.1814151417215384,0.02062185912853782
9.546069,-0.020163,2.291914,-0.013793,0.011052,0.009702,0.399172,-0.534717,-0.315242,-0.674805,-0.358435,-76.737987,-118.504445,2.27,3.327458739739331,1.9346739597671125,-8.979866629075586,0.018765444076949262,0.0003308396237950477,0.009638994069647487,3.849018705497366,2.2920026897813623,0.02109885193408595
9.518139,-0.013138,2.274648,-0.018454,0.024611,0.017026,0.399206,-0.534685,-0.315138,-0.674859,-0.387141,-76.726092,-118.481569,2.2800000000000002,3.324946693928305,1.9316600631809364,-8.981062008336906,0.019333010168758047,0.0001729601764666024,0.009477469911992237,3.8453323805820667,2.274685941168143,0.021531781936028043
9.523174,-0.010305,2.208068,-0.00826,0.019175,0.018536,0.399266,-0.53465,-0.315076,-0.67488,-0.413435,-76.717153,-118.454873,2.29,3.3227220283654475,1.9284285295999883,-8.98216776311545,0.019897208286107016,5.9359349608361e-05,0.009205953948744645,3.8417858180226765,2.208092046462058,0.02192377725711331
9.487622,-0.041762,2.153151,-0.001198,0.024879,0.01537,0.399346,-0.534578,-0.315037,-0.674908,-0.428923,-76.705069,-118.434642,2.3000000000000003,3.3207147074040497,1.9249613548509346,-8.983246167089598,0.02045833226276359,-1.4776576439541325e-05,0.008815520881953249,3.838309834502565,2.153555964781273,0.022276826204399018
9.509174,-0.056606,2.242466,0.007304,0.0104,0.014043,0.399418,-0.534535,-0.315057,-0.67489,-0.435511,-76.701173,-118.41903,2.31,3.31882883891931,1.9212698148663943,-8.984370881026484,0.021011714428136204,-5.5879170071088734e-05,0.008298703343391898,3.8348275793781452,2.2431803316701933,0.022591231548386617
9.552214,-0.084952,2.262557,0.010835,0.013252,0.012461,0.399505,-0.534472,-0.315091,-0.674873,-0.437209,-76.695718,-118.405552,2.32,3.316949629143058,1.9173957746657322,-8.98562278793032,0.02154683382514641,-7.109191998646724e-05,0.007650946370957271,3.831261071628801,2.2641512804035426,0.02286499687996535
9.505776,-0.060986,2.279314,0.00678,0.015852,0.010948,0.399574,-0.534407,-0.315106,-0.674876,-0.436483,-76.688712,-118.397763,2.33,3.314952102378918,1.9134104149475912,-8.987084476732834,0.022046850371413098,-6.72251727622508e-05,0.006872035557001973,3.8275379628550157,2.28012973376341,0.023093137578510853
9.51234,-0.087975,2.227446,0.001281,0.015363,0.009499,0.399626,-0.534351,-0.315111,-0.674888,-0.435755,-76.681964,-118.392668,2.34,3.3127109363211393,1.9094105396012495,-8.98883374780926,0.022488646362255157,-4.966901128839354e-05,0.005967359787486841,3.823598090328273,2.2291826492104683,0.023266952208026076
9.538144,-0.066815,2.232623,-0.002896,0.015843,0.012535,0.399674,-0.534307,-0.31509,-0.674903,-0.444404,-76.674956,-118.380942,2.35,3.3101106669712657,1.9055128026697528,-8.990936663169572,0.022843417473300924,-2.136540763669316e-05,0.004948872063185241,3.8193993858636066,2.233622551899492,0.02337335048806501
9.503406,-0.033264,2.268297,0.000711,0.011932,0.013325,0.399731,-0.534272,-0.315088,-0.674899,-0.453643,-76.670261,-118.366218,2.36,3.307055492699024,1.9018463238397156,-8.993440755185022,0.023077813574818102,1.8061073233754874e-05,0.003835623015128071,3.8149227346426593,2.2685408909484086,0.023394396968304292
9.527955,0.018653,2.257952,-0.003343,0.014534,0.01181,0.399774,-0.534232,-0.31507,-0.674913,-0.460803,-76.664006,-118.356284,2.37,3.3034779558940492,1.8985442511293888,-8.99636903176131,0.02315558794002122,7.292244157404659e-05,0.002653763865839276,3.8101754393432303,2.258029045143795,0.023307274254750928
9.531668,-0.01115,2.240682,-0.002098,0.022266,0.013925,0.399843,-0.534167,-0.315037,-0.674939,-0.472616,-76.653358,-118.34019,2.38,3.299345889317119,1.8957348814847248,-8.999715373023223,0.023039673391240387,0.00015175864087391431,0.0014359512005146621,3.805193035606955,2.2407097419398165,0.02308487679218518
9.515402,0.006248,2.242666,0.002615,0.019295,0.011683,0.399909,-0.5341,-0.315031,-0.674956,-0.47594,-76.644376,-118.33069,2.39,3.2946671589376004,1.8935329650950967,-9.003441812148926,0.02269456717954038,0.00026724445884921,0.00022013515153487047,3.800039312702408,2.242674703353119,0.02269720816647718
9.543668,-0.034293,2.279083,0.005611,0.024636,0.009313,0.399988,-0.534003,-0.315032,-0.674985,-0.472048,-76.632356,-118.326126,2.4,3.2894918912348694,1.8920317983530872,-9.007478044179049,0.022088875282762648,0.00043568377507302537,-0.0009522281732007678,3.794804504645684,2.279340986061103,0.02211368287063785
9.545934,-0.03259,2.247167,0.004628,0.025817,0.007799,0.400056,-0.533904,-0.315029,-0.675025,-0.464716,-76.619654,-118.326393,2.41,3.2839120238337838,1.891296655946469,-9.011723328081475,0.021197844131357176,0.0006760975147852053,-0.002038437201967644,3.7896017232783703,2.247403309152365,0.021306358907452447
9.542511,-0.035692,2.283902,0.005607,0.024637,0.009317,0.400127,-0.53381,-0.315027,-0.675058,-0.460209,-76.607673,-118.323556,2.42,3.2780581590081805,1.89136002635193,-9.016050756332586,0.02000569604072255,0.0010089496564873127,-0.00299711991101611,3.7845618033164783,2.2841808738512808,0.020254100356325803
9.526135,-0.01796,2.286313,0.003961,0.02619,0.011561,0.400206,-0.533716,-0.315011,-0.675092,-0.462309,-76.594741,-118.31452,2.43,3.2720938356280627,1.892218997482139,-9.020313678589782,0.018507585640107495,0.0014545929916808945,-0.003790924322171481,3.779826821904342,2.2863835407842226,0.018947761720419422
9.5255,-0.01886,2.28895,0.003978,0.029152,0.009257,0.400278,-0.533613,-0.31499,-0.675141,-0.459552,-76.580247,-118.311486,2.44,3.2662074759287596,1.8938349927212565,-9.024353895317988,0.01671100935427538,0.0020315484606804614,-0.004389106081657585,3.7755426438418676,2.2890276979757145,0.0173968179556727
9.501559,-0.039581,2.253551,0.002421,0.026903,0.011564,0.400354,-0.533521,-0.314968,-0.67518,-0.46251,-76.566906,-118.302474,2.45,3.2606024130306146,1.8961358897685778,-9.02801109486549,0.014636528678800853,0.0027547545603060046,-0.004769798772370183,3.7718509260480513,2.2538985702914847,0.015638658023685748
9.48522,-0.021974,2.255835,0.002065,0.021792,0.010902,0.400416,-0.533447,-0.314953,-0.675209,-0.464248,-76.556503,-118.295608,2.46,3.2554855557775952,1.8990203792620024,-9.031132902185009,0.012317709697040437,0.003633933590806181,-0.004921778381895394,3.768881081266555,2.2559420213961614,0.013753375875160482
9.470146,-0.035157,2.273353,0.004064,0.025352,0.009326,0.400487,-0.533352,-0.314945,-0.675245,-0.460915,-76.544061,-118.292096,2.47,3.251055380378416,1.902364253672382,-9.033584844799318,0.009800233809803832,0.004672218163127291,-0.004845576111227057,3.766742736096789,2.2736248321255643,0.011889230973463885
9.487066,-0.021346,2.225953,0.003597,0.021082,0.010906,0.400556,-0.533278,-0.314938,-0.675265,-0.462938,-76.534199,-118.283412,2.48,3.2474900299860825,1.9060281742915839,-9.035259524522768,0.007140194402869791,0.005865164797927364,-0.004553847304994756,3.765519206703415,2.226055347453203,0.010301459095430484
9.472066,-0.034632,2.243141,0.006111,0.01919,0.012427,0.400633,-0.533205,-0.314941,-0.675276,-0.465961,-76.525273,-118.272156,2.49,3.2449363336377837,1.909866355423853,-9.036084312747686,0.004401656475495837,0.0072002531638519895,-0.004070962514353834,3.7652624483484036,2.243408326922453,0.009369683086695575
9.467498,-0.007213,2.263914,5.9e-05,0.018235,0.012484,0.400692,-0.533149,-0.314923,-0.675293,-0.473431,-76.516924,-118.260234,2.5,3.243500514160789,1.9137355362543658,-9.0360269626658,0.0016536158121780416,0.008656931945667898,-0.003431844236571423,3.7659898151859212,2.26392549055065,0.009458037366721444
9.478719,0.001419,2.284672,-0.004013,0.017879,0.01327,0.400743,-0.533103,-0.314892,-0.675314,-0.484272,-76.508745,-118.246903,2.5100000000000002,3.24324124155031,1.9175035867493027,-9.035098652880958,-0.0010334542600251777,0.010207228714140785,-0.0026801256042397895,3.7676828099097244,2.2846724406673706,0.010603707794203216
9.512759,-0.034602,2.252274,0.001614,0.020485,0.010183,0.400798,-0.533031,-0.314884,-0.675342,-0.48277,-76.499076,-118.243343,2.52,3.244165515303355,1.921057118111943,-9.033354141248433,-0.003591242069157525,0.011816895416197577,-0.0018657522046826827,3.7702878327432834,2.2525397819972013,0.012490679251582615
9.520975,-0.028124,2.307605,-0.000479,0.020728,0.011698,0.400858,-0.532965,-0.314863,-0.675368,-0.487755,-76.489272,-118.233951,2.5300000000000002,3.24622764534303,1.9243075431715129,-9.03088890954333,-0.0059571749553583115,0.013447017541718823,-0.0010421829751455273,3.7737187820631437,2.307776374651799,0.0147443670454084
9.535032,-0.01704,2.294451,-0.006621,0.023577,0.011691,0.400899,-0.532905,-0.314812,-0.675415,-0.496054,-76.478001,-118.225795,2.54,3.2493313700159425,1.9271951568046126,-9.027833407306328,-0.008077685466085933,0.015055977807200615,-0.00026336892470111737,3.7778612368085778,2.2945142738717057,0.017088031876445912
9.480894,-0.031662,2.273833,-0.007602,0.024759,0.010174,0.400941,-0.532838,-0.314764,-0.675466,-0.501384,-76.465894,-118.220246,2.5500000000000003,3.2533349258953543,1.9296909742905282,-9.024344740195748,-0.00991093646297473,0.01660163771442468,0.0004193017553867247,3.782577877097689,2.274053428161485,0.01933951525597786
9.50951,-0.008295,2.245593,-0.012119,0.023094,0.010231,0.400968,-0.532788,-0.314701,-0.675518,-0.511212,-76.454955,-118.213104,2.56,3.2580586900855146,1.9317962615383422,-9.020596373808349,-0.011428814704038759,0.018043584825663508,0.0009599066776783187,3.78771477597446,2.2456083204054087,0.021380135166317784
9.478656,-0.003146,2.26291,-0.012564,0.021784,0.009504,0.400989,-0.53274,-0.314643,-0.675571,-0.517832,-76.444556,-118.209152,2.57,3.2632948671079056,1.9335398936422434,-9.016766614972376,-0.012618059061450613,0.019345290986818284,0.0013205695207975027,3.793108212271153,2.262912186854806,0.023134381377123273
9.481159,-0.001901,2.230599,-0.01301,0.020474,0.008777,0.401009,-0.532695,-0.314589,-0.675619,-0.524049,-76.434948,-118.20549,2.58,3.2688185948896002,1.934973862613443,-9.01302676447509,-0.013480458149377018,0.020476036679014094,0.0014735713728263175,3.7985916936798048,2.230599810051548,0.024559361607913367
9.463123,-0.017525,2.282074,-0.01234,0.020103,0.005018,0.401013,-0.532644,-0.314548,-0.675676,-0.519918,-76.425535,-118.212465,2.59,3.274399793477385,1.936167398680145,-9.009529886155155,-0.014032126036017516,0.02141247760609293,0.0014028796625577202,3.804002918405371,2.282141289907573,0.025639087925855123
9.507586,-0.012249,2.253707,-0.008803,0.022951,0.003449,0.401029,-0.532575,-0.314518,-0.675735,-0.511007,-76.414668,-118.221899,2.6,3.2798150662290073,1.9372002559817894,-9.00640109410058,-0.014301936322206686,0.022139758895866574,0.0011050198250330584,3.809190425856746,2.253740286690106,0.02638058709250562
9.489547,-0.02757,2.305079,-0.010716,0.015589,0.005082,0.401031,-0.532537,-0.314491,-0.675776,-0.506211,-76.407841,-118.228601,2.61,3.2848589784394364,1.93815573688593,-9.003730123031858,-0.014329256852072137,0.02265211662277823,0.0005892566870566859,3.814019686453915,2.305243870210048,0.026810319148936727
9.447224,-0.031905,2.302646,-0.016325,0.015947,0.005861,0.40102,-0.532508,-0.314444,-0.675827,-0.505251,-76.400792,-118.234593,2.62,3.289354081068499,1.9391139951073224,-9.001566732363607,-0.014161173779961107,0.022952942371119767,-0.00012290572303658644,3.8183783674045544,2.3028670240248355,0.026970196738899742
9.474135,-0.041672,2.323583,-0.021025,0.02189,0.005797,0.401007,-0.53247,-0.314368,-0.675901,-0.50793,-76.390351,-118.239683,2.63,3.293159121834711,1.9401460806868767,-8.999919229151313,-0.013849421063333587,0.023054321313311178,-0.0009988590289237921,3.8221805054350604,2.323956650515022,0.02691293210273761
9.469533,-0.014234,2.344376,-0.020402,0.015595,0.006645,0.400988,-0.532455,-0.314303,-0.675954,-0.51295,-76.383568,-118.242071,2.64,3.296174997904119,1.9413090877740198,-8.998756112077317,-0.013447238633529014,0.022976085648093093,-0.001996581033573716,3.8253693404797158,2.3444192108349564,0.02669672403871327
9.502533,-0.019234,2.296514,-0.020938,0.018089,0.005859,0.40097,-0.532429,-0.314234,-0.676017,-0.515807,-76.375305,-118.246927,2.65,3.2983481541882167,1.9426426558521004,-8.998010569496945,-0.013006370722346498,0.022744452028769166,-0.0030667781205322583,3.8279186295652785,2.296594543874038,0.026379554687232104
9.506288,-0.048852,2.27917,-0.021499,0.01762,0.007376,0.400959,-0.532409,-0.314162,-0.676073,-0.523734,-76.367375,-118.246308,2.66,3.299671310477731,1.9441669686870624,-8.997587334922544,-0.012574388133609003,0.022390333360111748,-0.004155357823197527,3.8298323670003716,2.2796934896612746,0.026013636107826005
9.5163,-0.009236,2.284828,-0.023571,0.020828,0.006588,0.40094,-0.532381,-0.314077,-0.676146,-0.529763,-76.357539,-118.249453,2.67,3.300181592136947,1.9458822987134003,-8.997371232085582,-0.012192479006094752,0.02194743191612948,-0.00520609785101935,3.831142970645405,2.2848466673455357,0.025640783273168325
9.473913,-0.014064,2.282645,-0.029652,0.016915,0.008939,0.400908,-0.532382,-0.313974,-0.676212,-0.545372,-76.350003,-118.246129,2.68,3.2999563205777913,1.9477700572282983,-8.997236642672584,-0.011893806747023068,0.021450231844437128,-0.006163371234708134,3.8319081295819766,2.2826883256636243,0.025289567613790153
9.4608,0.005474,2.250013,-0.032285,0.019653,0.009669,0.400874,-0.53238,-0.313854,-0.676289,-0.563669,-76.340824,-118.241787,2.69,3.2991068692785968,1.9497952275090082,-8.99705711079307,-0.011702486027966367,0.020932014169118433,-0.0069747864258527005,3.832206618142885,2.250019658768563,0.024974888229923713
9.506551,-0.020859,2.23652,-0.022836,0.013694,0.005192,0.400843,-0.532372,-0.313789,-0.676344,-0.566459,-76.33504,-118.247621,2.7,3.297771092246126,1.9519099737302317,-8.996714357205311,-0.011633182024111696,0.020423015660213952,-0.007593607039526169,3.832133442666338,2.236617269065273,0.024700068026914445
9.486534,-0.069949,2.337046,-0.018294,0.018323,0.002846,0.400821,-0.532336,-0.313737,-0.676409,-0.560687,-76.326661,-118.259799,2.71,3.296104876508348,1.954058133912158,-8.996106098786376,-0.011691297546559844,0.019948843914197323,-0.00798082894073455,3.8317946901746156,2.3380925706047226,0.024460916630749344
9.489183,-0.068136,2.304439,-0.016759,0.01761,0.00285,0.400801,-0.532301,-0.31369,-0.676471,-0.554538,-76.31874,-118.271716,2.72,3.294273359802842,1.9561802284479064,-8.99515223027208,-0.011873679458773816,0.0195292446208064,-0.008106812250611956,3.8313023967415063,2.3054460781412778,0.024250692035809516
9.511898,-0.048918,2.344399,-0.017059,0.018428,-0.002427,0.400765,-0.532253,-0.313656,-0.676545,-0.535677,-76.310328,-118.296639,2.73,3.2924423001626657,1.9582185603838864,-8.993799099175812,-0.01216975083326487,0.019177293653575372,-0.007952391887728167,3.830769665502269,2.3449093035605877,0.024064745250162486
9.484171,-0.040397,2.326911,-0.018181,0.017486,0.000604,0.400732,-0.532218,-0.31361,-0.676614,-0.524389,-76.302509,-118.314865,2.74,3.290770005447404,1.9601219633544469,-8.992021769648362,-0.012562958921626252,0.01889905719490214,-0.007509421829441931,3.8303061679161887,2.327261635383955,0.0239038431206187
9.499505,-0.059632,2.328625,-0.02028,0.01773,0.002118,0.400702,-0.532187,-0.313554,-0.676682,-0.518111,-76.294472,-118.328737,2.75,3.289400151106671,1.9618497787042584,-8.989824314068025,-0.013032420984254384,0.018693729216780332,-0.006780744504506143,3.8300140872198547,2.32938841030194,0.023775575803259338
9.516831,-0.045394,2.280876,-0.023237,0.018321,-0.000131,0.400652,-0.532161,-0.313488,-0.676763,-0.509777,-76.286326,-118.347483,2.7600000000000002,3.2884557498370297,1.9633747194312003,-8.987238287008987,-0.013554649992817771,0.01855421988196471,-0.005779615511150662,3.8299845309789133,2.28132767103106,0.023693703115233437
9.501777,-0.058195,2.297685,-0.016649,0.016774,0.000611,0.400625,-0.532123,-0.31345,-0.676826,-0.497929,-76.278842,-118.364949,2.77,3.28803448883438,1.9646843998709598,-8.984319624544955,-0.014105249571994891,0.018468134268649877,-0.004528651281981462,3.8302944522400204,2.2984218536313126,0.02367569917208221
9.482527,-0.042442,2.333564,-0.01411,0.017842,-0.000167,0.400604,-0.532077,-0.31342,-0.676889,-0.483776,-76.270862,-118.383439,2.7800000000000002,3.2882056071593455,1.9657814598071524,-8.98114427501529,-0.014660481202443714,0.018419052046397558,-0.0030583983312610936,3.831004158530202,2.333949927796224,0.023739102504681343
9.482063,-0.04285,2.335441,-0.016302,0.02189,0.001297,0.400588,-0.532023,-0.313371,-0.676964,-0.473272,-76.260442,-118.399318,2.79,3.2890084312511165,1.9666823648858203,-8.97780290875579,-0.015198625044430002,0.018387998668555294,-0.0014056427876421866,3.832155527271018,2.3358340666624846,0.023897542340634455
9.484724,-0.040802,2.303009,-0.01819,0.017491,0.000612,0.400551,-0.531993,-0.313319,-0.677033,-0.464463,-76.252862,-118.416073,2.8000000000000003,3.290452610397095,1.9674150962759422,-8.974395076387573,-0.01570107683008057,0.018354989396109793,0.00038841431232042344,3.833771060238669,2.3033704125227015,0.024157407042839082
9.500071,-0.060191,2.304676,-0.021413,0.016789,0.005154,0.400526,-0.531972,-0.313253,-0.677095,-0.466044,-76.245346,-118.422526,2.81,3.292519995939524,1.9680160341503505,-8.971023188429907,-0.016153145217673918,0.018300529507106447,0.002279996489949888,3.835853885946971,2.305461867274538,0.02451595122890236
9.479741,-0.013965,2.325289,-0.021295,0.015953,0.002908,0.400495,-0.531948,-0.313197,-0.677157,-0.461977,-76.238276,-118.43427,2.82,3.29516799767741,1.9685263867569054,-8.967786671845115,-0.016544535227331625,0.018206966350625426,0.0042245025770120325,3.838388759398343,2.3253309344577175,0.024961203729075346
9.48358,-0.043173,2.307674,-0.021297,0.015954,0.00291,0.400462,-0.531926,-0.31314,-0.677221,-0.458268,-76.231249,-118.446101,2.83,3.2983341431120285,1.9689885236208846,-8.964776621115258,-0.016869522716733292,0.018059609376853986,0.00617808778019832,3.841344025958793,2.3080778145905305,0.025473497132407416
9.494717,-0.033946,2.328448,-0.017634,0.017967,-0.000894,0.400429,-0.531887,-0.313098,-0.677291,-0.444865,-76.223256,-118.466024,2.84,3.301941475114694,1.9694425445543373,-8.962071205777342,-0.017126841451977803,0.017847560160627024,0.00809901995878519,3.844674425927801,2.3286954329881784,0.02602802770286652
9.467016,-0.02541,2.310988,-0.017194,0.019277,-0.000158,0.400402,-0.531841,-0.313056,-0.677363,-0.431606,-76.214337,-118.48527,2.85,3.3059043634200904,1.969923362295231,-8.959732029831029,-0.017319317554013246,0.017564222645362303,0.009948782754383703,3.8483245332737392,2.311127691029641,0.026597724638895936
9.481308,-0.013416,2.297463,-0.017544,0.014163,-0.000845,0.40036,-0.531813,-0.313022,-0.677424,-0.417047,-76.208495,-118.506521,2.86,3.3101342826276987,1.970458503298069,-8.957801568681747,-0.017453295674639182,0.017207491260465942,0.011692922386562854,3.852232558172839,2.2975021709293335,0.027155841348107286
9.49665,-0.032464,2.299156,-0.020273,0.020707,-0.000158,0.400326,-0.531768,-0.312967,-0.677505,-0.405566,-76.198755,-118.525752,2.87,3.3145451268556325,1.9710667476305412,-8.956301741953913,-0.017537907409549358,0.01677963846224314,0.013301655889756915,3.856334207712975,2.2993851838332784,0.027677942709656372
9.454288,-0.036433,2.296747,-0.022723,0.015836,0.000666,0.400278,-0.531751,-0.312905,-0.677576,-0.399302,-76.192003,-118.541933,2.88,3.319057686789429,1.9717576442953766,-8.955233618720158,-0.017584235808933455,0.016286941637181265,0.014750272842928609,3.860566297329091,2.297035947802733,0.028143211718245013
9.465417,-0.027211,2.317508,-0.018204,0.017498,0.000628,0.400248,-0.531714,-0.31286,-0.677643,-0.388553,-76.184097,-118.559192,2.89,3.3236030020373937,1.9725318596963102,-8.954578196958023,-0.01760443099208594,0.01573910128289685,0.01601936884948716,3.8648698364458483,2.3176677433542974,0.028535162135238004
9.483941,-0.043727,2.284885,-0.016667,0.016784,0.000631,0.400221,-0.531676,-0.312823,-0.677706,-0.376836,-76.176554,-118.576528,2.9,3.328124410662245,1.9733822489123833,-8.954298152212905,-0.017610831039934095,0.015148508172614013,0.017094947554933015,3.8691923696255284,2.2853033745553346,0.02884191224032779
9.476179,-0.018194,2.339735,-0.010393,0.013089,-0.001611,0.400197,-0.531635,-0.31282,-0.677754,-0.356499,-76.17118,-118.599053,2.91,3.332578237812025,1.9742954849907561,-8.95434041180633,-0.017615139385259045,0.01452941790532118,0.017968420872956324,3.873489431145151,2.339805738060534,0.029056174367890632
9.483335,-0.044184,2.287392,-0.010422,0.010119,0.000682,0.400179,-0.531605,-0.312819,-0.677788,-0.341152,-76.167433,-118.615834,2.92,3.3369331865365446,1.9752540436648114,-8.954639380183131,-0.017627704534655144,0.013897088296272269,0.018636527037114894,3.877725058384507,2.2878186963830855,0.02917507789673583
9.460924,-0.030806,2.357073,-0.003772,0.01451,-0.003159,0.40017,-0.531543,-0.31284,-0.677833,-0.313431,-76.161247,-118.642058,2.93,3.341168606843768,1.9762383231570078,-8.955120618171795,-0.017656939864864052,0.01326692974866958,0.01910117539688012,3.8818714004037727,2.357274302444457,0.029199894723952992
9.494232,-0.034428,2.309092,-0.004898,0.013563,-0.000133,0.400167,-0.531491,-0.312852,-0.67787,-0.293328,-76.155568,-118.660866,2.94,3.345271914679028,1.9772286837123487,-8.955704765543489,-0.017708910376671563,0.012653711865480973,0.019369216911931747,3.8859075453277523,2.309348642290289,0.029135691076153703
9.462392,0.002889,2.31046,-0.002892,0.017128,-0.001686,0.400169,-0.53142,-0.312866,-0.677917,-0.268541,-76.147872,-118.68355,2.95,3.3492355021849343,1.9782072195675338,-8.956311494666824,-0.017787100036776422,0.01207086149259109,0.019452130809621115,3.889817765994325,2.310461806202604,0.028990895431604404
9.458815,0.000322,2.346245,-0.005875,0.014752,-0.001647,0.400163,-0.531365,-0.312875,-0.677961,-0.246541,-76.141567,-118.70489,2.96,3.353053517320353,1.9791591241652713,-8.956863294383185,-0.01789235874734043,0.011529878443062585,0.019365611551666412,3.8935894401928195,2.3462450220957316,0.028776752930540384
9.458484,9.9e-05,2.347579,-0.011083,0.013452,0.002152,0.40015,-0.53133,-0.312859,-0.678003,-0.235439,-76.135964,-118.718314,2.97,3.3567188900909852,1.9800735712096886,-8.95728890615182,-0.018023013840944048,0.011039885912144439,0.019129037107796364,3.897210932769324,2.34757900208747,0.02850663378120041
9.47717,-0.016306,2.314453,-0.00339,0.009877,0.002162,0.400157,-0.531289,-0.31288,-0.678022,-0.219765,-76.132392,-118.731136,2.98,3.360220942498804,1.9809441010633375,-8.957526265938814,-0.018175119440515693,0.010607323914503667,0.018764800828535703,3.900669726334849,2.31451043956276,0.02819517755643378
9.440485,0.016494,2.227222,0.005525,0.003444,-0.000812,0.400163,-0.53125,-0.312948,-0.678017,-0.19237,-76.132528,-118.75154,2.99,3.363543841954525,1.9817685650747587,-8.957524841487011,-0.01834280976065333,0.010235786790592056,0.018297496162058217,3.903951052750108,2.22728307345968,0.027857285706588734
9.416064,-0.003328,2.345326,0.003793,0.001181,-0.006048,0.400147,-0.531214,-0.313029,-0.678016,-0.155362,-76.134202,-118.782377,3.0,3.3666660509710917,1.9825487315892976,-8.957247291869523,-0.01851871999611302,0.009926000341491504,0.01775295663391686,3.90703721147977,2.345328361202329,0.02750701623803386
9.436879,-0.016923,2.433035,-0.00569,-0.003451,-0.006712,0.400092,-0.531212,-0.313089,-0.678023,-0.120729,-76.138291,-118.816854,3.0100000000000002,3.3695608027014563,1.983289689067464,-8.956670411881937,-0.018694439959562544,0.00967593020022727,0.01715717202674586,3.909907670759426,2.433093853338584,0.027156477359862225
9.534277,0.033247,2.411826,-0.028797,0.014893,0.000703,0.400028,-0.531209,-0.313009,-0.6781,-0.117955,-76.132038,-118.8328,3.02,3.372197508396253,1.9839991874610625,-8.955785356334092,-0.018860969261753218,0.00948100971903237,0.016535122792177448,3.912539943755214,2.4120551439146247,0.02681484649476055
9.468364,0.072181,2.184159,-0.020596,0.016439,0.008933,0.400018,-0.531193,-0.312937,-0.678152,-0.128078,-76.124709,-118.829975,3.0300000000000002,3.374543895321593,1.984687037931757,-8.954597167735656,-0.019009146853790963,0.009334471746563482,0.01590959442363917,3.9149111279806292,2.18535137541815,0.026487642809828765
9.454514,0.027412,2.215075,-0.028256,-0.000325,0.008393,0.399953,-0.531254,-0.312867,-0.678175,-0.142661,-76.127143,-118.828386,3.04,3.376568597073646,1.9853646526250914,-8.953123655376286,-0.01913003167124597,0.009227763555013571,0.015300048426060687,3.9169999099613264,2.2152446080216515,0.026176348366605925
9.424801,-0.030581,2.41609,-0.01585,-0.009852,0.008446,0.399913,-0.531317,-0.312864,-0.67815,-0.149079,-76.134878,-118.826577,3.0500000000000003,3.3782438829734667,1.9860447661566802,-8.951393697686122,-0.019215215971430156,0.009151018763895336,0.014721635280669491,3.9187887855849017,2.416283527581356,0.025878412134111354
9.392689,-0.027111,2.308489,-0.004922,-0.002132,0.009073,0.39992,-0.531335,-0.312881,-0.678124,-0.152595,-76.138392,-118.82106,3.06,3.3795482191127504,1.9867413474172275,-8.949445068834162,-0.019257060260852454,0.009093556860144302,0.014184437661306483,3.9202662341791767,2.308648190920825,0.025587602819065913
9.395024,0.006162,2.25858,0.004806,-0.009759,8.3e-05,0.399906,-0.531344,-0.312971,-0.678084,-0.127754,-76.146086,-118.839258,3.0700000000000003,3.380468389472903,1.9874696790928357,-8.947321926389993,-0.019248848543535233,0.009044382252573457,0.013693028965903341,3.921428599061686,2.2585884057623247,0.025294625176975685
9.417165,-0.03883,2.360108,0.005242,-0.019039,-0.004335,0.399867,-0.531374,-0.313094,-0.678027,-0.092,-76.159014,-118.867946,3.08,3.381000959399111,1.988246543733853,-8.945072130169095,-0.019184872544430135,0.00899266096405482,0.013246420930710727,3.922281454221168,2.3604274063321666,0.02498789613460957
9.442854,0.014902,2.347103,0.004454,-0.025461,-0.005767,0.399808,-0.531427,-0.31323,-0.677958,-0.053723,-76.175703,-118.900186,3.09,3.3811529323389684,1.9890904110427885,-8.942744575665985,-0.019060459809719977,0.008928161469071156,0.01283845124540083,3.9228402739809294,2.347150306693843,0.02465439161196827
9.491721,0.024148,2.280651,0.003137,-0.018797,-0.002821,0.399769,-0.531463,-0.313341,-0.6779,-0.02327,-76.188534,-118.9246,3.1,3.3809415359768855,1.990021485785426,-8.940386705897708,-0.01887196063308521,0.008841652816951878,0.012458625195414116,3.9231302786909046,2.2807788384025756,0.02428050791132752
9.495346,0.027321,2.244595,0.00932,-0.018685,-0.005107,0.399736,-0.531485,-0.313478,-0.67784,0.016403,-76.201332,-118.955403,3.11,3.3803931717384987,1.9910614658546095,-8.93804231616655,-0.018616702949434804,0.008725254753366643,0.012093375684925653,3.9231854093768463,2.244761268167731,0.02385291249879965
9.487273,0.08477,2.281246,0.016796,-0.01762,-0.002893,0.399729,-0.53149,-0.313631,-0.677768,0.056465,-76.21337,-118.982445,3.12,3.379541658464,1.9922328845757633,-8.935749706864295,-0.018292915499665646,0.008572730055599883,0.011727649959147659,3.9230464804382157,2.282820462808234,0.02335937138812578
9.473992,0.04221,2.309878,0.020904,-0.014295,-0.005957,0.399731,-0.531472,-0.313801,-0.677703,0.104876,-76.223641,-119.015409,3.13,3.3784259785321518,1.9935579690183938,-8.933540196117326,-0.017899611556736365,0.008379700627566346,0.011346679297263303,3.922758655367122,2.3102636340868115,0.022789528462972407
9.516252,0.046603,2.312705,0.024298,-0.013582,-0.002968,0.399747,-0.531454,-0.313966,-0.677631,0.147482,-76.233618,-119.041503,3.14,3.3770877765109137,1.9950570258056364,-8.931436995723693,-0.017436421874443886,0.008143760396123797,0.010937750694034252,3.922368466434006,2.313174497662033,0.022135582924736958
9.500827,0.066118,2.311345,0.022317,-0.014174,-0.003703,0.39976,-0.531437,-0.314134,-0.67756,0.191544,-76.243811,-119.069152,3.15,3.375568857721698,1.9967464510470285,-8.929454482082182,-0.016903368545782654,0.007864454810835218,0.010491784693885729,3.921920639557801,2.312290487579145,0.0213927806450933
9.502161,0.035396,2.325321,0.007637,-0.009516,0.004589,0.399765,-0.531451,-0.314216,-0.677507,0.206175,-76.251651,-119.076061,3.16,3.373908890367701,1.9986365366789982,-8.927597941660368,-0.01630058140027785,0.007543102431765496,0.010004533715162228,3.921454985875833,2.3255903830763063,0.020559621668236227
9.501338,0.066102,2.309244,0.008612,-0.010704,0.006104,0.399781,-0.531465,-0.314304,-0.677447,0.219447,-76.259872,-119.080095,3.17,3.372143446338297,2.000729303117917,-8.925863910703956,-0.015627973533228815,0.007182449448631593,0.009477248657086141,3.92100359181639,2.3101898895848367,0.01963770299565837
9.517349,0.047186,2.308176,0.010271,-0.012254,0.003857,0.399793,-0.531476,-0.314407,-0.677382,0.238162,-76.269012,-119.088476,3.18,3.3703024451489814,2.003016623440526,-8.924241236586864,-0.014884909079690032,0.006786170824427046,0.0089167140456648,3.9205884973504026,2.308658260889212,0.018631168029436575
9.547984,0.040787,2.292245,0.009643,-0.005951,0.003034,0.399808,-0.531467,-0.314498,-0.677338,0.2592,-76.274502,-119.099896,3.19,3.3684090118229744,2.005478913031869,-8.922712950638207,-0.014069910418383463,0.006358257970855663,0.008334618172087376,3.920220011880164,2.2926078424785166,0.017545816700278567
9.533409,0.028209,2.306895,0.011942,-0.003213,0.006755,0.399846,-0.53145,-0.31458,-0.677291,0.272708,-76.278464,-119.102289,3.2,3.366478731540285,2.0080846354865325,-8.921258961150016,-0.013180460071902005,0.005902357550199331,0.007746298590830868,3.919895783460342,2.307067465139674,0.016388028991178482
9.520867,0.049026,2.272435,0.007768,0.00024,0.007486,0.399881,-0.53143,-0.31464,-0.677258,0.282172,-76.280418,-119.1029,3.21,3.364519279546385,2.0107908167236186,-8.919859464476199,-0.012212952290641278,0.005421144345093358,0.007168977530060898,3.9196007055641986,2.272963787195256,0.01516374783786435
9.490427,0.054675,2.287589,0.006109,0.001791,0.009734,0.399925,-0.531412,-0.314687,-0.677225,0.284433,-76.28167,-119.096674,3.22,3.3625304156989655,2.0135446657122897,-8.918498853305225,-0.011162839894019358,0.004915819075138351,0.006619667069343883,3.919307708935224,2.28824229236023,0.013877833540865088
9.474674,0.072413,2.287648,0.003004,0.000251,0.012025,0.399963,-0.531409,-0.314719,-0.67719,0.280516,-76.283631,-119.086321,3.23,3.3605043488866704,2.016286279543813,-8.91716979745163,-0.010025004327215708,0.004385817066647646,0.006112970750225869,3.9189794385736265,2.288793790290641,0.012534133974707165
9.501893,0.062612,2.307057,0.003595,0.003694,0.008218,0.4,-0.531386,-0.314758,-0.677169,0.28516,-76.283562,-119.083739,3.24,3.358426487585987,2.01895227733694,-8.915877101743943,-0.008794353411590508,0.0038287956198307825,0.0056590290070586274,3.9185707561154444,2.3079064677306573,0.011136648379522447
9.504991,0.06436,2.273071,0.005987,0.002627,0.011983,0.400049,-0.531368,-0.314795,-0.677136,0.28302,-76.284161,-119.073456,3.25,3.356276590540496,2.021480081188638,-8.914640916518902,-0.007466624977127754,0.0032409389754979165,0.005261847029808287,3.918031938467648,2.273981965768638,0.009692327282808388
9.53641,0.026489,2.273342,0.012972,0.001537,0.003686,0.400085,-0.531329,-0.314878,-0.677106,0.304123,-76.28546,-119.083297,3.2600000000000002,3.354030310618994,2.023812464023751,-8.913498889791198,-0.00603934852887233,0.002617583801770312,0.004918206824633405,3.9173123712679376,2.2734963197869926,0.008216704569494592
9.509138,0.035117,2.254189,0.011283,0.000119,0.008227,0.400132,-0.531304,-0.314948,-0.677066,0.313869,-76.287486,-119.082125,3.27,3.351661086229882,2.0259019310343347,-8.912506904382361,-0.004512894001462173,0.001954129532485602,0.004617305628253706,3.9163644711794023,2.2544625194067875,0.006745690903300345
9.480682,0.042598,2.391552,-0.003682,0.005611,0.011239,0.400153,-0.5313,-0.314944,-0.677058,0.3062,-76.286651,-119.072784,3.2800000000000002,3.3491422867622007,2.027714501994568,-8.911738136983011,-0.002891518734468404,0.0012471609639792887,0.004341187937411436,3.9151475270515443,2.3919313448148967,0.005363040534042425
9.498384,0.055944,2.342844,-0.009664,0.008484,0.018759,0.400193,-0.531305,-0.314898,-0.677052,0.279113,-76.283914,-119.046052,3.29,3.34644947500949,2.0292325137126563,-8.911280307736423,-0.00118431286238848,0.0004956790649069574,0.004065956487043795,3.913631137894817,2.3435118389869505,0.004263835930935822
9.520266,0.040268,2.275122,-0.01233,0.008255,0.021786,0.400237,-0.53132,-0.314837,-0.677043,0.243707,-76.281232,-119.012173,3.3000000000000003,3.3435626237943183,2.0304561550524536,-8.911231151484447,0.0005940592766296071,-0.00029768662695752645,0.003763667057324562,3.911797951942909,2.275478329210806,0.0038218730316965225
9.524293,0.009436,2.256699,-0.00784,0.006945,0.024042,0.400297,-0.531335,-0.314786,-0.67702,0.205306,-76.279381,-118.972719,3.31,3.3404681240691336,2.0314035696722113,-8.911692319219968,0.002422917426198799,-0.0011256212024929066,0.0034047417716101076,3.9096454763570265,2.256718727421962,0.004327796029970235
9.498966,-0.045813,2.268151,0.01262,0.001917,0.022506,0.400396,-0.531324,-0.314817,-0.676955,0.182064,-76.280382,-118.937123,3.3200000000000003,3.3371604474881784,2.032109503277807,-8.91276208785245,0.004275502784055189,-0.001975356141744018,0.0029606839933966084,3.907186825017646,2.268613627255642,0.005563057221703222
9.498932,0.016376,2.359999,0.001185,-0.000329,0.01882,0.400451,-0.531337,-0.314826,-0.676908,0.161144,-76.282682,-118.91034,3.33,3.3336433699672856,2.032622618628803,-8.914527396335352,0.006119348506648045,-0.0028283021718822662,0.002406851277005256,3.904450387428204,2.3600558157333906,0.007158117936365078
9.459026,-0.050791,2.385918,-0.002242,-0.004011,0.018127,0.400486,-0.531369,-0.314832,-0.67686,0.140916,-76.287043,-118.886646,3.34,3.3299307124203517,2.0330017309970274,-8.917055821490699,0.007917105104986805,-0.0036601602353221628,0.0017250428372467851,3.9014785130456913,2.3864585536742515,0.008891180966664561
9.461273,-0.019184,2.336234,-0.004024,-0.001621,0.022625,0.400538,-0.531402,-0.314815,-0.676811,0.108062,-76.290083,-118.850653,3.35,3.3260466010328518,2.0333113061789474,-8.920388148842102,0.009627806812415719,-0.004441541375469196,0.0009056812213993578,3.89832539176469,2.336312763439861,0.010641532421695608
9.476047,-0.008962,2.320887,-0.004346,-0.003765,0.019641,0.400573,-0.531439,-0.314809,-0.676763,0.08267,-76.294289,-118.822711,3.36,3.3220252879850296,2.033616601794702,-8.924532176725538,0.011208530044505016,-0.005139076406740016,-5.0592478284281435e-05,3.895054363819207,2.320904303113982,0.012330604675835749
9.498259,0.039321,2.343688,-0.008019,-0.005773,0.023447,0.400611,-0.531497,-0.314785,-0.676707,0.045571,-76.299699,-118.784705,3.37,3.317910604138174,2.033978828485636,-8.929458312812788,0.01261636421037234,-0.005716950042038432,-0.001132041137237837,3.8917349154047405,2.344017828939234,0.01389739834675275
9.487834,-0.00392,2.339062,-0.012101,-0.006119,0.024224,0.400633,-0.531565,-0.314744,-0.676659,0.0056,-76.305219,-118.746925,3.38,3.313755136254722,2.0344506787602494,-8.935097384720915,0.013810590267332019,-0.0061387574850530055,-0.0023157483137341405,3.888439618582574,2.339065284733199,0.01528984752196642
9.491184,-0.004011,2.304058,-0.012137,-0.009087,0.02652,0.400665,-0.531647,-0.314704,-0.676595,-0.041155,-76.312514,-118.701411,3.39,3.3096192269851397,2.0350725311261173,-8.94134090551496,0.014754944175052295,-0.006369557165649127,-0.0035683477438888354,3.8852412582198514,2.3040614912551702,0.016462464630689365
9.463192,0.033374,2.268905,-0.014527,-0.008016,0.022756,0.400685,-0.53172,-0.314669,-0.676541,-0.080142,-76.319104,-118.664309,3.4,3.305569878696624,2.0358695885260416,-8.948043835812674,0.015419830998667455,-0.006377981334635888,-0.004847525152117143,3.882210350358621,2.269150440781968,0.01737666061223611
9.438116,-0.022017,2.278897,-0.00575,-0.013628,0.022028,0.400712,-0.531797,-0.314673,-0.676464,-0.112769,-76.328991,-118.629572,3.41,3.3016795999183572,2.0368501491167184,-8.955029694824873,0.015784351229483348,-0.006138265040670418,-0.0061041946748275275,3.8794131915115515,2.279003353419648,0.018002367457459638
9.46151,-0.004897,2.316128,-0.0119,-0.010757,0.022026,0.400726,-0.531877,-0.31465,-0.676403,-0.148976,-76.337298,-118.594712,3.42,3.298025173143385,2.038005129880403,-8.96209771398028,0.01583800461013571,-0.0056320615822675725,-0.007285200813885692,3.8769104905976732,2.316133176868938,0.0183203891496817
9.483885,-0.020652,2.245982,-0.011524,-0.023008,0.019909,0.400716,-0.531994,-0.314658,-0.676313,-0.180079,-76.352552,-118.564951,3.43,3.294686260474116,2.0393088681965508,-8.969031607218465,0.015581948972363417,-0.004849927224816672,-0.008336355953484226,3.874756536204825,2.2460769464619865,0.01832522192079941
9.473775,-0.063679,2.239668,-0.012656,-0.023951,0.022941,0.400706,-0.532122,-0.314654,-0.676221,-0.218248,-76.368243,-118.529208,3.44,3.2917437171922157,2.040721117139244,-8.975609449293987,0.01502971245735569,-0.00379237874909404,-0.009205597556394524,3.872998757760254,2.240573088579125,0.01802823950078514
9.480891,0.002887,2.260526,-0.016213,-0.02679,0.024503,0.400692,-0.532268,-0.314641,-0.676119,-0.263088,-76.385644,-118.48808,3.45,3.2892774686122337,2.042190037392878,-8.981614101458307,0.014207286464529376,-0.002470453534384432,-0.009846041464948403,3.871677467758236,2.2605278435456175,0.017461233114537913
9.485571,-0.028204,2.238769,-0.018197,-0.027377,0.02377,0.400669,-0.532419,-0.314625,-0.676021,-0.307544,-76.403384,-118.448571,3.46,3.287363832841468,2.0436558878182276,-8.98684359970339,0.013152562573035523,-0.0009057324553190488,-0.01021871923423848,3.870825539505527,2.2389466498728816,0.01668030204482007
9.455852,-0.024336,2.251085,-0.016017,-0.031427,0.022302,0.400641,-0.532577,-0.314629,-0.675912,-0.34734,-76.423434,-118.412524,3.47,3.286072242632622,2.0450550434960624,-8.991120926561765,0.011914117652470727,0.0008701806970455653,-0.010294816286535486,3.870467790168169,2.2512165418104497,0.015769802036041593
9.498462,-0.023877,2.252414,-0.020426,-0.026291,0.027547,0.400627,-0.532738,-0.31459,-0.675812,-0.403369,-76.44067,-118.362717,3.48,3.28546142341875,2.04632393633485,-8.99430262716967,0.010549394797497471,0.0028166956573110183,-0.010057269792943073,3.8706199008931006,2.2525405520267556,0.014844937881561736
9.513803,-0.014306,2.23465,-0.015017,-0.029645,0.021529,0.400602,-0.532887,-0.314596,-0.675707,-0.440959,-76.459688,-118.328354,3.49,3.2855752024510805,2.0474025262035593,-8.996285804372187,0.009122370070702431,0.004885728904054466,-0.009501635438455319,3.8712868035404164,2.234695792302836,0.01404880986546799
9.512284,-0.050384,2.281185,-0.015021,-0.029643,0.021533,0.400576,-0.533035,-0.314602,-0.675602,-0.478022,-76.478657,-118.294406,3.5,3.286438232858076,2.04823697213664,-8.997013130863849,0.007700832164133939,0.007023568321827759,-0.008636185704654043,3.8724605811316897,2.281741341975685,0.013535768597195103
9.500365,-0.031276,2.244282,-0.013004,-0.026084,0.019976,0.400557,-0.533165,-0.314611,-0.675507,-0.510876,-76.495633,-118.263734,3.5100000000000002,3.2880519968822584,2.048781278652116,-8.996475639676989,0.006353429914540075,0.009173005033232307,-0.007481255029579501,3.874118049563901,2.244499918400533,0.013434257323584602
9.516569,-0.052318,2.241764,-0.015108,-0.025835,0.021496,0.400533,-0.533303,-0.314606,-0.675414,-0.548512,-76.512505,-118.230022,3.52,3.2903914924591158,2.0489978288112516,-8.99471318823925,0.005146658014723001,0.011275617468636975,-0.006067896235269536,3.876218295725945,2.2423744122737395,0.01380025372018725
9.521122,-0.083101,2.220069,-0.015111,-0.025833,0.0215,0.400514,-0.533439,-0.314603,-0.67532,-0.586378,-76.529319,-118.195441,3.5300000000000002,3.2934030025590117,2.048856864220998,-8.991812627139911,0.004141952741156316,0.013274090190824697,-0.004435955763654628,3.8787005281834035,2.221623762242833,0.014595716715571779
9.517659,-0.05709,2.237017,-0.018711,-0.021894,0.020728,0.400484,-0.53357,-0.31458,-0.675245,-0.624299,-76.543951,-118.163631,3.54,3.297003299194777,2.0483351108334413,-8.987903833929613,0.0033930573565840874,0.015114454499204273,-0.002631710651350388,3.8814826395559585,2.2377453667450635,0.015712589665170307
9.502509,-0.040645,2.235035,-0.012648,-0.020968,0.020678,0.400475,-0.533683,-0.314578,-0.675161,-0.658824,-76.557973,-118.131039,3.5500000000000003,3.301080548997798,2.047413856970239,-8.983153885100288,0.0029437929444356852,0.016748148004683383,-0.000705235853755774,3.884460875422142,2.2354045421914126,0.017019510454061595
9.53029,-0.052207,2.25192,-0.020741,-0.025447,0.022297,0.400441,-0.533832,-0.314551,-0.675076,-0.701975,-76.57461,-118.094826,3.56,3.3054970717877894,2.0460768497460884,-8.977759727050369,0.002826337863513391,0.018133804908782664,0.0012923155553583717,3.8875109474655534,2.252525084710268,0.018398183216914134
9.519065,-0.06422,2.230834,-0.016773,-0.01453,0.019132,0.400427,-0.53393,-0.314526,-0.675019,-0.735107,-76.584944,-118.0661,3.5700000000000003,3.3100939658323307,2.044308379915916,-8.971939763909075,0.0030600814948339547,0.019238706560872176,0.0033113363322808793,3.8904908192712706,2.231758173269676,0.01975998171041296
9.534124,-0.054217,2.214153,-0.018799,-0.018084,0.020697,0.40041,-0.534045,-0.3145,-0.67495,-0.773694,-76.597314,-118.032446,3.58,3.314697463045809,2.0420918767629224,-8.9659248055223,0.0036510793139917556,0.02003984193909332,0.0053061238225617655,3.8932452407552542,2.2148166945591683,0.021049479687661153
9.515812,-0.040299,2.247081,-0.018719,-0.012143,0.016109,0.400384,-0.534133,-0.314472,-0.674909,-0.800691,-76.606296,-118.011176,3.59,3.319126725419027,2.0394092478398864,-8.959948815478722,0.0045921000080599,0.020524548801764485,0.007236830964509567,3.8956119287687887,2.2474423307310913,0.02224221680518649
9.500488,-0.023454,2.245982,-0.017185,-0.012863,0.016107,0.400366,-0.534218,-0.314454,-0.674861,-0.826397,-76.615535,-117.989531,3.6,3.32320265375445,2.0362410911430846,-8.954239872342677,0.005863224003954051,0.020690727108552055,0.009070904328465334,3.897429108935812,2.2461044575976428,0.02334019899952194
9.531043,-0.03184,2.229683,-0.015726,-0.009779,0.016063,0.400351,-0.534292,-0.314432,-0.674821,-0.851547,-76.623159,-117.968398,3.61,3.326757165739407,2.0325677955540757,-8.949011714059093,0.007432927925818358,0.02054663572669702,0.010783948169922002,3.898543969653548,2.2299103269165332,0.024366086993351164
9.504826,-0.055588,2.224838,-0.014265,-0.006695,0.016019,0.400348,-0.534351,-0.314411,-0.674786,-0.875107,-76.62889,-117.947524,3.62,3.3296423254866054,2.028371441127071,-8.944456181831589,0.009259571629212399,0.020110300443680795,0.01236000004328632,3.8988214525484186,2.225532330025336,0.025356132429092196
9.516646,-0.04786,2.243399,-0.015802,-0.005974,0.016024,0.400339,-0.534412,-0.314381,-0.674757,-0.900111,-76.63433,-117.926586,3.63,3.331738679833664,2.0236383233981643,-8.940736819589885,0.011293193362467313,0.019408575216560996,0.013791247937529645,3.8981527284889057,2.2439094573536162,0.026351992864551955
9.516754,-0.049779,2.242897,-0.022396,-0.004393,0.015307,0.400309,-0.534486,-0.314322,-0.674744,-0.928477,-76.639124,-117.906983,3.64,3.3329621822423023,2.0183618622868176,-8.937983820747595,0.013477513816654981,0.018475909102379603,0.015077257150404927,3.89646269267284,2.2434493311528123,0.027392084240104038
9.544113,-0.060795,2.261562,-0.017747,-0.003586,0.013,0.400289,-0.534538,-0.314289,-0.67473,-0.947242,-76.64322,-117.893605,3.65,3.333269163678275,2.012545619196961,-8.936290447384236,0.015752050795429667,0.01735287861361811,0.01622380430171437,3.893715858518357,2.2623789938622134,0.02850370724065708
9.513844,-0.056035,2.276635,-0.019922,0.000468,0.014483,0.400271,-0.534585,-0.314235,-0.674729,-0.970156,-76.645011,-117.877617,3.66,3.332658938580589,2.00620613417181,-8.935710980960573,0.018054252245101224,0.01608454987439532,0.01724143458335265,3.8899201346158376,2.2773244925679785,0.02969740452099614
9.526386,-0.079302,2.310815,-0.017822,0.000219,0.012962,0.400256,-0.534625,-0.314194,-0.674725,-0.988732,-76.646925,-117.864477,3.67,3.3311738056850735,1.9993753054433563,-8.936260201336893,0.020321565425743423,0.014718737495668538,0.018143866705966412,3.8851281234599058,2.312175333193614,0.030964611314580486
9.517644,-0.087784,2.257572,-0.019432,0.004746,0.012929,0.400249,-0.534651,-0.314141,-0.674733,-1.008193,-76.64624,-117.8506,3.68,3.3288964052392425,1.9921020647261691,-8.937914335183013,0.022493372799998385,0.01330422784502642,0.018946369284804854,3.8794357725191193,2.2592780629749853,0.0322787733278122
9.516643,-0.058412,2.243162,-0.018535,0.007356,0.014403,0.400248,-0.534671,-0.31408,-0.674746,-1.030354,-76.64405,-117.834196,3.69,3.3259446080721498,1.9844531525484315,-8.940613367685243,0.02451273938827542,0.011889033359440837,0.019664224147424643,3.8729784211409717,2.2439223961599026,0.03359918477968721
9.532055,-0.078972,2.243654,-0.018986,0.006052,0.013668,0.400243,-0.534692,-0.314023,-0.674758,-1.050228,-76.64255,-117.82003,3.7,3.322464316815699,1.9765128666465666,-8.944264572527453,0.026327930608144277,0.01051874164401271,0.02031137746325586,3.86592450114239,2.245043395683032,0.034876294389393
9.52499,-0.055147,2.297892,-0.022059,0.007497,0.01368,0.400231,-0.534718,-0.313951,-0.674779,-1.072645,-76.640283,-117.805437,3.71,3.318620732929446,1.9683817365063616,-8.948747082539485,0.0278936729552238,0.009235018328305561,0.02089935962512332,3.858467342046706,2.2985536398511566,0.036057257067022695
9.516969,-0.094688,2.26014,-0.015422,0.008885,0.012104,0.400232,-0.534723,-0.313903,-0.674797,-1.087053,-76.637293,-117.795382,3.72,3.3145887639189113,1.9601741577037193,-8.953917295639204,0.029172141616754334,0.008074316156063775,0.02143653054619385,3.8508156801419333,2.262122595471784,0.03709087852496817
9.516732,-0.096062,2.261079,-0.013842,0.011135,0.009807,0.400234,-0.534713,-0.313861,-0.674823,-1.095245,-76.632983,-117.790571,3.73,3.3105432972230977,1.9520150896867305,-8.959614888296736,0.03013366898256855,0.007066834706639877,0.021927680046986506,3.843183554444606,2.2631186783032393,0.03793153452425823
9.48622,-0.090706,2.27716,-0.011669,0.007081,0.008322,0.400227,-0.534711,-0.313839,-0.674839,-1.097961,-76.631066,-117.790509,3.74,3.30665004480564,1.944035974118509,-8.965669193761071,0.030757176187456273,0.0062357654845274675,0.022373985284808787,3.835780284046525,2.278965827746436,0.03854197550371661
9.485198,-0.06062,2.263006,-0.015712,0.009723,0.006821,0.400212,-0.534705,-0.313802,-0.674869,-1.10009,-76.627598,-117.793032,3.75,3.303057572582329,1.9363700687062377,-8.971905696023999,0.03103033668132065,0.005596845704547368,0.02277330072436587,3.8288011662627337,2.2638177798656853,0.03889511154732722
9.474127,-0.102211,2.259551,-0.011104,0.007555,0.006806,0.400209,-0.534694,-0.31379,-0.674886,-1.098449,-76.625259,-117.795957,3.7600000000000002,3.29989098884034,1.929147417562744,-8.978152392063345,0.030949486765913907,0.005158230792265264,0.02312073258729115,3.822419429748478,2.261861580672434,0.03897494517446792
9.488743,-0.090693,2.244959,-0.010917,0.002919,0.004587,0.400189,-0.534698,-0.313789,-0.674895,-1.09276,-76.625713,-117.803691,3.77,3.2972475968724533,1.9224896964202551,-8.984245781888637,0.030519303291722654,0.004920680532040594,0.023409430291252715,3.8167798401169555,2.2467901842250426,0.038776828091936257
9.500336,-0.08209,2.264542,-0.012688,0.005305,0.009104,0.400182,-0.534705,-0.313766,-0.674905,-1.098495,-76.624818,-117.800721,3.7800000000000002,3.2951946382750488,1.916505180068324,-8.990036256558929,0.02975227337757887,0.0048780375403529655,0.023631513294865503,3.8119942037397365,2.2660293991614493,0.038307198305079504
9.484659,-0.064414,2.265156,-0.014674,0.004724,0.008372,0.400168,-0.534716,-0.313738,-0.674917,-1.103997,-76.624196,-117.799166,3.79,3.2937690801610593,1.9112840795421222,-8.995392669658958,0.028667985156539913,0.005017960511186292,0.02377904432506671,3.808138861194036,2.266071681949183,0.03758292497452673
9.514886,-0.072145,2.250204,-0.016707,0.00117,0.009932,0.400149,-0.534748,-0.313706,-0.674918,-1.116156,-76.625763,-117.792001,3.8000000000000003,3.292979244945653,1.9068944864947532,-9.00020590204298,0.027292272216372673,0.0053228601545397694,0.02384496029700703,3.8052541163852553,2.2513602427512573,0.03663035755385438
9.514773,-0.073358,2.250643,-0.007702,0.008244,0.009792,0.400163,-0.534736,-0.313691,-0.674926,-1.120917,-76.623109,-117.7871,3.81,3.2928079568451483,1.9033791406748837,-9.004391269079507,0.025656247568011704,0.005770974840320343,0.02382388074550571,3.803345421312529,2.2518382068019456,0.035484144116137206
9.511582,-0.07715,2.285449,-0.0095,0.003028,0.006839,0.40015,-0.534741,-0.313687,-0.674932,-1.119089,-76.623506,-117.790576,3.8200000000000003,3.2932167934945333,1.9007532038396182,-9.007889678735982,0.02379526538635948,0.006337517420816162,0.023712729676574156,3.802386039168168,2.2867508071718263,0.03418584985897976
9.49975,-0.087565,2.266795,-0.010658,0.00886,0.007549,0.400149,-0.534729,-0.313667,-0.67495,-1.12011,-76.620523,-117.791261,3.83,3.294150988531403,1.8990031817159072,-9.010667527422209,0.021747849857605885,0.0069958256440279575,0.023511128744021545,3.8023208464580627,2.2684856625621417,0.032782369113420765
