Acc_X,Acc_Y,Acc_Z,Gyr_X,Gyr_Y,Gyr_Z,Quat_q0,Quat_q1,Quat_q2,Quat_q3,Roll,Pitch,Yaw,Time,Acc_X_global,Acc_Y_global,Acc_Z_global,Gyr_X_global,Gyr_Y_global,Gyr_Z_global,Acc_Global_Mag,Acc_Local_Mag,Gyr_Global_Mag
9.532252,-0.197271,2.215434,-0.003155,-0.015541,-0.000924,0.402915,-0.539748,-0.315832,-0.668268,-3.369078,-77.395435,-115.127244,0.0,1.5164817354142703e-09,8.008980300336866e-10,-4.188036153136219e-09,5.6410486643551045e-12,-3.7759063950065475e-12,2.8035625258200588e-12,1.714979448377419e-09,2.2241995539512636,7.344308134443734e-12
9.55623,-0.180711,2.194973,-0.003155,-0.015542,-0.000923,0.402869,-0.539789,-0.315909,-0.668226,-3.347328,-77.40656,-115.146727,0.01,2.9400760900808153e-08,1.552797042545334e-08,-8.123487259946513e-08,1.0940203172756948e-10,-7.3228517459738e-11,5.4370136431849475e-11,3.324940010105811e-08,2.2023993589378836,1.424336057645428e-10
9.506624,-0.164386,2.2081,-0.003056,-0.018443,-0.001915,0.402823,-0.53983,-0.315999,-0.668178,-3.322811,-77.418856,-115.167925,0.02,2.8334245116696316e-07,1.4966728753994522e-07,-7.832702642091772e-07,1.0556707965705908e-09,-7.070135684675063e-10,5.243292154461361e-10,3.2044225937423977e-07,2.214210551640471,1.3744926856478734e-09
9.50548,-0.133824,2.1683,0.000453,-0.012591,-0.005886,0.402775,-0.539846,-0.316095,-0.668149,-3.28575,-77.428452,-115.200977,0.03,1.8178592270990669e-06,9.60460629460709e-07,-5.027874625302912e-06,6.78520979323342e-09,-4.5517181504379296e-09,3.3652439842698718e-09,2.0559904645433738e-06,2.172425776171881,8.836406347202542e-09
9.505301,-0.129324,2.201267,0.00408,-0.015284,-0.003317,0.402741,-0.539865,-0.3162,-0.668104,-3.253503,-77.439159,-115.227202,0.04,8.773474260144872e-06,4.6370396934454476e-06,-2.4278990306594494e-05,3.2811740998184044e-08,-2.2079625967208737e-08,1.623037850306811e-08,9.92350682531197e-06,2.2050626073345403,4.2749800192943655e-08
9.530001,-0.127575,2.200041,0.004019,-0.014293,-0.0014,0.402715,-0.539886,-0.3163,-0.668055,-3.226066,-77.449575,-115.248297,0.05,3.411936732077377e-05,1.8041208027023452e-05,-9.447289527690869e-05,1.2783226333027483e-07,-8.643304526962914e-08,6.295753024566285e-08,3.859554914033768e-05,2.2037367770008287,1.6665956161395612e-07
9.528353,-0.093034,2.194545,0.000527,-0.01641,-0.004035,0.402667,-0.539916,-0.316397,-0.668015,-3.193939,-77.460946,-115.276587,0.06,0.000111801690794119,5.9149729495113316e-05,-0.00030975273997205883,4.194682217333394e-07,-2.854556957482392e-07,2.0523748133498295e-07,0.00012648442024126478,2.1965161238153934,5.473216303271494e-07
9.554281,-0.110452,2.178184,0.008751,-0.013102,0.000506,0.402662,-0.539926,-0.316505,-0.667958,-3.16844,-77.470617,-115.292918,0.07,0.00031857852358164595,0.00016865645695201344,-0.0008831960135088702,1.196352408412108e-06,-8.206093860981798e-07,5.799716758619943e-07,0.000360468134734636,2.1809826184910324,1.562378313491343e-06
9.532195,-0.146167,2.180762,0.003935,-0.014219,0.003361,0.402651,-0.539954,-0.316589,-0.667902,-3.153677,-77.48053,-115.301402,0.08,0.0008081658848543071,0.0004281628222203473,-0.0022419586457969737,3.036070188735906e-06,-2.1014503174924372e-06,1.453863964210622e-06,0.0009145794114094402,2.1856549802137115,3.968316526469401e-06
9.556098,-0.129532,2.160469,0.011192,-0.013043,-0.001879,0.402645,-0.539955,-0.316711,-0.667847,-3.120565,-77.490238,-115.324098,0.09,0.0018584410158032916,0.0009854083334976062,-0.005159101083335978,6.981273299552885e-06,-4.879636981307674e-06,3.291278400654341e-06,0.002103528605212323,2.16434859460878,9.131349706533493e-06
9.583419,-0.176924,2.183019,0.010983,-0.004419,-0.003664,0.402647,-0.539924,-0.316819,-0.66782,-3.081872,-77.494712,-115.352707,0.1,0.003929584405247022,0.0020854842068202335,-0.010916430743308917,1.475577564444992e-05,-1.0418160472180743e-05,6.82466199542546e-06,0.0044486939628229335,2.1901767180154663,1.9309246330327224e-05
9.6059,-0.140568,2.178731,0.0146,-0.00429,-0.004863,0.402654,-0.539884,-0.316943,-0.667789,-3.037822,-77.499497,-115.384606,0.11,0.007727753382262862,0.004105220618906707,-0.021483528664670914,2.9000806594394293e-05,-2.0680867143884033e-05,1.3110785033327127e-05,0.008750486196033445,2.1832608943928347,3.795573386378612e-05
9.533619,-0.15912,2.197208,0.008556,-0.000743,-0.007887,0.402636,-0.539841,-0.317044,-0.667787,-2.988933,-77.50206,-115.425777,0.12,0.014265879367545042,0.007586310859980777,-0.03968968750523881,5.350115560118992e-05,-3.851651581836707e-05,2.355231181631587e-05,0.016157581087328933,2.202962135322348,7.000433581816364e-05
9.531606,-0.124188,2.193272,0.00478,0.003022,-0.003781,0.402632,-0.539798,-0.317118,-0.667788,-2.952275,-77.502618,-115.455867,0.13,0.024911143057173714,0.01326159200787597,-0.06935964983726549,9.336340413791371e-05,-6.780317953985468e-05,3.9863659847068e-05,0.02822117770395725,2.1967850885619193,0.00012207828539234942
9.5081,-0.13347,2.124783,0.00114,0.001978,0.000261,0.402627,-0.539773,-0.317167,-0.667788,-2.928089,-77.503338,-115.475886,0.14,0.04140809959603491,0.022068514385110212,-0.11538219265944087,0.00015510468246086444,-0.00011351520483324219,6.396298388717014e-05,0.046921743779626976,2.128970887069384,0.00020256956226780197
9.484389,-0.149742,2.144303,0.001053,0.008616,-0.005359,0.402616,-0.539717,-0.317222,-0.667814,-2.888756,-77.500734,-115.510902,0.15,0.06586752525964606,0.035144341854516634,-0.18368342928971154,0.00024661077381432,-0.00018167768992868204,9.777849394708236e-05,0.07465691962716679,2.149525069026412,0.00032153427602306985
9.509113,-0.152072,2.110679,0.00114,0.001977,0.000261,0.402612,-0.53969,-0.317273,-0.667814,-2.864065,-77.501395,-115.531185,0.16,0.10071377689447468,0.05379902258901505,-0.28108407908012106,0.00037692727883258635,-0.0002791825589900239,0.00014296734424998488,0.1141823089969868,2.1161502154206824,0.0004903638815147892
9.48392,-0.138184,2.091606,0.010751,0.00329,-0.002606,0.402628,-0.539637,-0.317363,-0.667805,-2.82698,-77.501752,-115.558207,0.17,0.14858747958224308,0.07946380364682086,-0.41503106380700516,0.0005558574824975601,-0.00041345433343668565,0.00020055896535003506,0.16850143969303052,2.0961656606986003,0.0007212114289640561
9.483868,-0.137576,2.091881,0.009636,0.002226,-0.005709,0.402632,-0.539579,-0.317462,-0.667803,-2.781022,-77.502293,-115.594533,0.18,0.21220518683921788,0.11361626928182535,-0.5932072708787648,0.0007933559476314215,-0.0005919703288025301,0.0002705508900739507,0.2407066637361492,2.0964000748752607,0.0010261775255502982
9.505036,-0.100383,2.244785,-0.01215,0.008086,-0.004137,0.402588,-0.539553,-0.31747,-0.667846,-2.752507,-77.499939,-115.626218,0.19,0.2941826945827979,0.15768523486217692,-0.8230375220711582,0.0010987275005716706,-0.0008216569779333174,0.00035150117781404685,0.3337785060268795,2.247028358279886,0.0014162893023332644
9.530878,-0.122362,2.196534,-0.014812,0.012914,0.003072,0.402571,-0.539525,-0.31744,-0.667893,-2.743016,-77.494205,-115.639806,0.2,0.39683332829670304,0.21294148704466082,-1.1111219876060776,0.0014796659802793779,-0.00110819966048228,0.0004401735790498637,0.45035626713950627,2.1999395610334394,0.0019003343601542175
9.555161,-0.114535,2.110111,-0.002835,0.011544,0.006349,0.402594,-0.539485,-0.317444,-0.66791,-2.735815,-77.489583,-115.644193,0.21,0.5219562198799126,0.2803824253775748,-1.462638931516584,0.0019411933974930818,-0.0014553167055699062,0.000531295983640265,0.5924969197657816,2.1132171442012293,0.002483637240462837
9.481836,-0.119053,2.110553,0.012969,0.008238,-0.000164,0.402627,-0.539417,-0.317519,-0.66791,-2.703628,-77.486805,-115.665932,0.22,0.6706319265018538,0.36062000171665326,-1.8807655376770798,0.0024845841466712773,-0.0018640580188175081,0.0006174879183056725,0.7614420309397865,2.1139081301272293,0.0031668852218957296
9.554671,-0.121416,2.199184,0.025181,-0.000843,0.002058,0.402691,-0.539355,-0.317653,-0.667857,-2.670828,-77.489386,-115.680098,0.23,0.8430434585084047,0.45378183046503057,-2.366167865958588,0.003106376083613064,-0.002332193524296992,0.0006894000017912728,0.9574132976901908,2.2025331123304364,0.003945119943688134
9.531766,-0.152605,2.23762,0.017863,0.005532,-0.001165,0.40273,-0.539283,-0.317753,-0.667844,-2.63311,-77.488136,-115.704505,0.24,1.0383397926654074,0.5594349006795944,-2.9166084473830365,0.003797576903088404,-0.0028537546779543476,0.0007360895742782072,1.1794562022944426,2.2428177702223158,0.0048070088369148965
9.506503,-0.138289,2.218883,0.008327,0.006961,-0.006828,0.402731,-0.539216,-0.317839,-0.667856,-2.586117,-77.486478,-115.743101,0.25,1.2545563379588076,0.676539988539278,-3.526712868631529,0.0045431689278843486,-0.0034187831007435974,0.0007456334024448228,1.4253483648586898,2.223188164598309,0.00573449483111331
9.531209,-0.140178,2.185459,-0.003676,0.007419,-0.007265,0.4027,-0.539169,-0.317883,-0.667892,-2.545039,-77.484221,-115.782821,0.26,1.4886028354714769,0.8034427547283908,-4.187925589077758,0.005321999283214613,-0.004013325217271988,0.0007059503724751138,1.6915846599857973,2.1899499794207626,0.0067028965081169095
9.551713,-0.080979,2.231546,-0.009697,0.005324,-0.002757,0.402664,-0.539149,-0.317901,-0.667921,-2.519078,-77.483385,-115.810453,0.27,1.7363241794418713,0.9379048033626168,-4.888671203309025,0.006107117774997879,-0.004619693538065572,0.0006057754794151523,1.9734454834844455,2.233014811539995,0.007681498540961946
9.552811,-0.099935,2.217079,-0.008531,0.008213,-0.005338,0.40262,-0.539117,-0.317917,-0.667966,-2.48607,-77.480766,-115.845863,0.28,1.9926340960087314,1.0771749247685185,-5.614721676300175,0.006866593414871322,-0.005216996861526881,0.00043569589875741094,2.2651482201230446,2.219330145892224,0.008634639094630971
9.525509,-0.051872,2.194399,-0.002587,0.007568,-0.001319,0.402612,-0.539078,-0.317951,-0.667987,-2.459507,-77.478604,-115.869939,0.29,2.251715995286531,1.2180976188976946,-6.349754118133649,0.007564803369024272,-0.005781924957195361,0.00018913854822555208,2.560075532595366,2.195011998961509,0.009523270426332775
9.478338,-0.077656,2.145415,0.001057,0.00861,-0.005357,0.402601,-0.539022,-0.318002,-0.668014,-2.421258,-77.475661,-115.904177,0.3,2.507280091458835,1.3572530691906322,-7.076068795038753,0.008164146434846437,-0.006289758449535297,-0.00013680572066093546,2.8510681070176513,2.146819968362741,0.01030694252280093
9.504045,-0.105988,2.184728,0.001031,0.007697,-0.002515,0.402598,-0.538973,-0.318051,-0.668032,-2.389547,-77.473447,-115.931404,0.31,2.7528614809779746,1.4911202487555513,-7.775424520375581,0.008627090061685461,-0.006715560909972181,-0.0005408197576921513,3.130764432163663,2.187297394075163,0.010946137550674605
9.478322,-0.087997,2.200096,-0.003565,0.001696,-0.004487,0.402567,-0.538949,-0.3181,-0.668046,-2.35623,-77.47436,-115.96302,0.32,2.982140616814931,1.6162529859476542,-8.42993931936381,0.00891842052427968,-0.007035496839504445,-0.0010171240091380728,3.3919664463319865,2.2018550999611666,0.01140486657863805
9.4795,-0.106787,2.185334,-0.001285,0.00565,-0.003964,0.40255,-0.53891,-0.318148,-0.668065,-2.322341,-77.473345,-115.993836,0.33,3.1892657537771263,1.7294577294985667,-9.022998986917868,0.009007536001189191,-0.007228206381978856,-0.0015555879150239054,3.628007729641424,2.1879415337081105,0.011653434089338973
9.502559,-0.085849,2.200879,-0.004704,-0.000281,-0.004749,0.402508,-0.538897,-0.318195,-0.668079,-2.288896,-77.475461,-116.02704,0.34,3.369156591258673,1.8279615024999576,-9.540115179437253,0.008870606984445436,-0.007276156520589038,-0.0021421678108633734,3.833100493209598,2.2025527061666423,0.011671289770822319
9.505086,-0.123826,2.170618,-0.009498,-0.000481,-0.004739,0.402456,-0.538893,-0.318231,-0.668096,-2.258339,-77.477966,-116.059263,0.35000000000000003,3.51776951296676,1.9095591226382278,-9.969677966859871,0.00849243051802162,-0.007166881308440064,-0.0027596169418899236,4.002638928158431,2.1741470465909156,0.011449936657408129
9.526978,-0.083998,2.200871,-0.013078,-0.002518,-0.002617,0.402391,-0.538909,-0.318247,-0.668115,-2.235044,-77.481337,-116.087406,0.36,3.6323074085895297,1.972730135737323,-10.303554963818124,0.007867824482814516,-0.006894022606512778,-0.0033883923088587047,4.133439403080754,2.2024733420963347,0.010995972545901412
9.501899,-0.070585,2.181302,-0.016758,-0.001656,0.000497,0.402336,-0.538932,-0.318247,-0.66813,-2.222242,-77.484393,-116.105702,0.37,3.711360841358975,2.016717948574358,-10.537499623933956,0.007002443257133567,-0.00645808939617196,-0.004007674410271228,4.22390229277084,2.182443735226409,0.010334533583914994
9.478833,-0.09163,2.165779,-0.019135,-0.002711,0.000965,0.402274,-0.538962,-0.318239,-0.668147,-2.211392,-77.487631,-116.123387,0.38,3.754971989025663,2.0415661946511694,-10.671344168938576,0.005912942385670249,-0.005866868320382763,-0.004596416886823792,4.274085535586507,2.1677164790952252,0.009513678559970668
9.502551,-0.075306,2.146326,-0.0225,-0.006817,-0.005503,0.402174,-0.539004,-0.318246,-0.668169,-2.18689,-77.493772,-116.157038,0.39,3.7646179635797514,2.0481102267051314,-10.708966940358582,0.004626472082697802,-0.005135439626661585,-0.005134350218093803,4.285685932548196,2.147646686937123,0.008610373758037922
9.47705,-0.057731,2.16071,-0.017832,-0.004631,-0.001679,0.402101,-0.539037,-0.318249,-0.668185,-2.169899,-77.498329,-116.181064,0.4,3.7431154099476247,2.0379245869733658,-10.65803864623142,0.003179531924750837,-0.004285778920075827,-0.005602874008275835,4.261930266250017,2.1614811062003296,0.007737539748840648
9.528468,-0.093378,2.130074,-0.024864,-0.010698,-0.001267,0.402003,-0.539104,-0.318245,-0.668192,-2.158024,-77.506596,-116.203168,0.41000000000000003,3.6944533068886196,2.013230144767184,-10.52956598351623,0.00161626686097548,-0.0033459533246541005,-0.005985784206099034,4.207384086648087,2.1321197659512467,0.007045376837234187
9.501024,-0.041621,2.140107,-0.021258,-0.007747,-0.006229,0.401899,-0.539149,-0.318253,-0.668214,-2.132567,-77.513117,-116.238102,0.42,3.62356529581974,1.976767111064855,-10.337263495686363,-1.3676419760082734e-05,-0.0023489482609608246,-0.006269794333616389,4.127691081519654,2.1405116862773723,0.006695376461632051
9.525859,-0.051197,2.192894,-0.021219,-0.009657,-0.005304,0.4018,-0.539199,-0.318269,-0.668226,-2.10801,-77.52087,-116.271054,0.43,3.5360563631047324,1.9316421730723603,-10.096794482437886,-0.0016575864314674845,-0.0013311862198152004,-0.006444823900450606,4.029259992584889,2.1934915609696337,0.006786413238038954
9.551657,-0.068718,2.177178,-0.021292,-0.005844,-0.007151,0.401695,-0.539236,-0.318277,-0.668256,-2.078986,-77.526261,-116.309667,0.44,3.4379010996903734,1.8811594135417424,-9.824928734796977,-0.003262256396996476,-0.0003308203338449855,-0.006504043317334958,3.918918819063364,2.178262198911784,0.007283840907570624
9.57616,-0.066992,2.176776,-0.022466,-0.005918,-0.008336,0.401588,-0.53927,-0.31829,-0.668286,-2.046878,-77.531927,-116.351083,0.45,3.3351319510418684,1.8286454180016003,-9.538668485659441,-0.00477652398244816,0.000614097941597494,-0.006443682930538824,3.8035574395082543,2.1778066218652197,0.008044460662225536
9.55311,-0.087308,2.161182,-0.026254,0.00066,-0.007989,0.401478,-0.539294,-0.31827,-0.668342,-2.018259,-77.533608,-116.392035,0.46,3.2335358327923216,1.7772790104398175,-9.254394152494896,-0.006153629176363006,0.001467467306214974,-0.006262633495582745,3.6897797580481506,2.162944826847879,0.008901752110398875
9.551085,-0.052652,2.157181,-0.029716,-0.000549,-0.013463,0.401343,-0.539317,-0.318262,-0.668409,-1.976491,-77.536292,-116.447597,0.47000000000000003,3.1383762899662693,1.7299354269597391,-8.987078351813672,-0.007353258777978975,0.002196888273540357,-0.005961884816674476,3.5835851209191083,2.1578234635541897,0.009718065821429573
9.526301,-0.049891,2.191005,-0.032103,-0.005352,-0.006388,0.401207,-0.539379,-0.318225,-0.668458,-1.956474,-77.541546,-116.484354,0.48,3.054156158727321,1.6890535106907512,-8.749610641016611,-0.008343174854767162,0.0027752097512899086,-0.005543866046476262,3.490096216992989,2.19157295609934,0.0103944603785933
9.503251,-0.070554,2.175403,-0.034652,0.0003,-0.006768,0.401082,-0.53942,-0.318181,-0.668521,-1.934767,-77.543603,-116.522267,0.49,2.9844326437666355,1.6565327935272123,-8.552267022123626,-0.009100359377957007,0.0031817752057717295,-0.005011762561851603,3.4133471990424558,2.176546824519289,0.010865449748832816
9.502978,-0.059528,2.121882,-0.0394,-0.001824,-0.005828,0.40094,-0.539481,-0.318116,-0.668587,-1.919238,-77.546642,-116.55758,0.5,2.9316930838207242,1.6336652486591858,-8.402348079138523,-0.009611645079105061,0.0034032936139339583,-0.00436888784805769,3.356141606428273,2.1227168451557543,0.011092939627449271
9.502555,-0.055751,2.155911,-0.032132,-0.00346,-0.007304,0.400814,-0.539529,-0.318089,-0.668637,-1.894997,-77.550857,-116.596608,0.51,2.89729569585309,1.6211041986922372,-8.303998447339907,-0.00987383981068264,0.003434287056281155,-0.0036181827426586357,3.3199851162658005,2.1566317288591486,0.011062471990980788
9.503911,-0.074781,2.140315,-0.036854,-0.004669,-0.009204,0.400669,-0.539585,-0.318053,-0.668696,-1.869171,-77.555452,-116.639951,0.52,2.881475526145414,1.6188705043338274,-8.258208885141318,-0.009893384474521084,0.003277097316950956,-0.002761898577970638,3.3050934809135204,2.141620997559092,0.010781767338449582
9.504036,-0.074782,2.139757,-0.035638,-0.006513,-0.007094,0.400529,-0.539651,-0.31802,-0.668743,-1.847694,-77.561405,-116.678204,0.53,2.883411949001101,1.6263938930468707,-8.262991272402523,-0.009685609558548112,0.002941465555535256,-0.0018014970173536977,3.3104715016115884,2.141063372853078,0.010281470888864741
9.526491,-0.039063,2.135419,-0.040396,-0.005815,-0.009914,0.400364,-0.539719,-0.317973,-0.668809,-1.821005,-77.5667,-116.725381,0.54,2.901350575611584,1.6425852563659171,-8.313707062411225,-0.009273670530647057,0.002443729070532643,-0.0007377712678881617,3.334054811641878,2.135776257834608,0.0096185801096045
9.527446,-0.054392,2.153773,-0.036792,-0.009427,-0.004514,0.400225,-0.5398,-0.317934,-0.668845,-1.807075,-77.574268,-116.756581,0.55,2.9327695665957068,1.665934067213036,-8.403521630949099,-0.008687247568332623,0.0018057043988113964,0.00042883459462128353,3.372902851706663,2.1544597060964032,0.008883284178665674
9.528076,-0.05852,2.118767,-0.039277,-0.004769,-0.006802,0.400066,-0.539871,-0.317876,-0.668911,-1.78673,-77.578986,-116.797812,0.56,2.9745782339171947,1.6946238361695136,-8.523951017307159,-0.007961091706129247,0.0010533439203598116,0.0016977549328255218,3.4234289266476403,2.1195750023740607,0.008207976996793561
9.528272,-0.058926,2.117874,-0.041494,-0.013478,-0.00265,0.399914,-0.539978,-0.317825,-0.668939,-1.780617,-77.588837,-116.823765,0.5700000000000001,3.023334566160911,1.7266577985593088,-8.665463997743048,-0.0071334898947785635,0.0002152622852158243,0.00306774327145946,3.481651770678547,2.1186935959104614,0.007768144225613284
9.528477,-0.059187,2.116945,-0.03442,-0.005555,-0.008731,0.399779,-0.540034,-0.317797,-0.668988,-1.755878,-77.593974,-116.864365,0.58,3.075467948135412,1.7599868268692518,-8.818101357473626,-0.006244708627178795,-0.0006787706307703184,0.0045362945908801406,3.543452656768754,2.1177722337385574,0.0077482310253893455
9.55173,-0.038509,2.131679,-0.028356,-0.008169,-0.008562,0.399651,-0.540088,-0.317796,-0.669022,-1.726361,-77.600883,-116.906573,0.59,3.1274938432054777,1.792631881652115,-8.972075549556312,-0.005335462543850555,-0.0015992805623872722,0.006099118266394341,3.6048227144207483,2.13202680614527,0.00825978828430409
9.579608,-0.09013,2.119632,-0.02718,-0.008101,-0.007376,0.399532,-0.540138,-0.317794,-0.669053,-1.699093,-77.607348,-116.945662,0.6,3.1762084822079677,1.8227940981262727,-9.11831741220899,-0.004445443080197329,-0.0025184062379684058,0.0077497222878937415,3.662086651980509,2.1215473674476373,0.009282377373183527
9.554123,-0.072569,2.134046,-0.032064,-0.005428,-0.006353,0.399406,-0.540194,-0.317769,-0.669095,-1.677176,-77.612641,-116.982262,0.61,3.218853529468436,1.8489467747343022,-9.248941899925487,-0.00361193427410236,-0.003411021934966141,0.009479154981744021,3.712091353936725,2.1352795109486253,0.010702126845126532
9.553733,-0.068828,2.168046,-0.033376,-0.000696,-0.007453,0.399278,-0.540235,-0.317727,-0.669158,-1.653515,-77.615002,-117.022139,0.62,3.25324311479916,1.8699049836584536,-9.357611418624428,-0.0028685389964585493,-0.004255621592309894,0.011275931488376275,3.7523506515115113,2.1691382509420647,0.012388924975222556
9.552986,-0.054007,2.148715,-0.036992,-0.004608,0.000348,0.399163,-0.540309,-0.317666,-0.669197,-1.651804,-77.61971,-117.040942,0.63,3.2778483510124143,1.884870151408291,-9.439782839843673,-0.0022440389373801057,-0.005034939260089337,0.01312615037853798,3.781140740557632,2.1493936138534515,0.01423664805581917
9.554768,-0.077458,2.098859,-0.032284,-0.000569,-0.001506,0.399068,-0.540352,-0.317618,-0.669241,-1.643606,-77.621757,-117.0628,0.64,3.291837312516886,1.8934486474115193,-9.492832086140757,-0.0017614147289716007,-0.005736298441521364,0.015013783500064232,3.7975440316687448,2.100287800194297,0.016168531060193423
9.553441,-0.059041,2.114385,-0.030114,0.00629,3.1e-05,0.398987,-0.540375,-0.317558,-0.669299,-1.636304,-77.620228,-117.083292,0.65,3.29507124813838,1.8956450612804014,-9.516057827595546,-0.0014370570635219761,-0.00635169863897786,0.016921102923991294,3.8014424536832068,2.115209154647833,0.01813099370604155
9.55208,-0.040771,2.130068,-0.030034,0.002464,0.001868,0.39891,-0.540408,-0.317504,-0.669344,-1.63307,-77.620376,-117.098984,0.66,3.2880603691241697,1.8918323455435935,-9.510572851509027,-0.0012802036658210527,-0.00687765986426529,0.0188291963145061,3.7934641970960983,2.1304581570791297,0.02008680563167567
9.554069,-0.075758,2.134179,-0.027699,0.005439,0.000484,0.398836,-0.540429,-0.317453,-0.669395,-1.62563,-77.619326,-117.1182,0.67,3.271884742776015,1.8827022638922257,-9.479097680464651,-0.0012926384778656004,-0.007314854256907072,0.020718518361774723,3.774890406948973,2.1355231861548587,0.022009884373650094
9.553128,-0.061079,2.115739,-0.027735,0.007346,-0.000431,0.398764,-0.540444,-0.317397,-0.669453,-1.618014,-77.616989,-117.137776,0.68,3.248087518188305,1.8692005470933957,-9.425675726947073,-0.0014686866413536218,-0.007667558377650279,0.022569430789533242,3.7475302815407527,2.116620457323892,0.023881534667786673
9.504238,-0.06461,2.116082,-0.027733,0.007342,-0.000429,0.39869,-0.540457,-0.317344,-0.669511,-1.608081,-77.614863,-117.159565,0.6900000000000001,3.218548840155717,1.8524517757381413,-9.355332497995589,-0.0017955307343565886,-0.007942961210351176,0.02436269435467331,3.7135743183492513,2.1170681337226727,0.0256876515007969
9.52636,-0.029409,2.113296,-0.032551,0.009021,-0.001321,0.398604,-0.540471,-0.317273,-0.669585,-1.598568,-77.611431,-117.183738,0.7000000000000001,3.185349343171162,1.8336792660940577,-9.273703017971151,-0.0022538600908532927,-0.008150363029384588,0.026079889745187212,3.675436040654795,2.1135006205102,0.02741658169686771
9.527487,-0.049204,2.098629,-0.025369,0.00464,0.005694,0.398552,-0.540499,-0.317218,-0.669619,-1.603453,-77.610754,-117.188969,0.71,3.1506320750919348,1.8141251455075516,-9.186651738256929,-0.002818846696487361,-0.008300300768977014,0.027703757374822138,3.6355924573803517,2.0992057339043737,0.02905751300845945
9.525582,-0.027414,2.148966,-0.027829,0.010227,0.000582,0.398486,-0.540504,-0.317153,-0.669685,-1.596973,-77.606681,-117.207536,0.72,3.116471129969974,1.7949754017778272,-9.099907856766848,-0.0034614196873715927,-0.008403637521288877,0.029218456989688772,3.5964328155720913,2.1491408507941028,0.03059935912236775
9.526643,-0.047258,2.134576,-0.025506,0.00944,0.005787,0.398442,-0.540516,-0.317087,-0.669733,-1.601833,-77.603253,-117.212873,0.73,3.0847542480559476,1.7772940272742073,-9.018736362702189,-0.004149787959001651,-0.008470657423296252,0.0306097561462339,3.5601239908581537,2.1350990652285904,0.032030141251943034
9.550277,-0.042896,2.170194,-0.0279,0.014042,-0.001244,0.398373,-0.540508,-0.317017,-0.669813,-1.59109,-77.597126,-117.236405,0.74,3.057085263545215,1.761969515705593,-8.947661501320646,-0.004851139012118981,-0.008510211464133438,0.031865162069125756,3.5284992394587698,2.1706178992286964,0.03333685351935335
9.526434,-0.060497,2.190156,-0.027911,0.010272,0.005344,0.398322,-0.540522,-0.316943,-0.669868,-1.596121,-77.593229,-117.242978,0.75,3.034710657149308,1.7496759777323931,-8.890255012279948,-0.005533423999083549,-0.008528962866225839,0.032974014316335766,3.502975135462624,2.1909913718098024,0.03450576196609791
9.550802,-0.052032,2.103488,-0.019447,0.006835,0.005946,0.398289,-0.540533,-0.316896,-0.669901,-1.599584,-77.591102,-117.246976,0.76,3.018472719770051,1.740850094047549,-8.848996748409498,-0.006167125995724006,-0.008530780770740154,0.033927556059672015,3.484499477678447,2.104131434860475,0.035523044967848014
9.499114,-0.006052,2.080902,-0.003708,0.002736,0.002214,0.398281,-0.540518,-0.316926,-0.669903,-1.583147,-77.59157,-117.261333,0.77,3.008790074236382,1.7356840904684505,-8.825210443931478,-0.006726902716622242,-0.00851632666815286,0.034718999624913434,3.473530908561008,2.080910800661095,0.03637565085372811
9.452204,-0.051237,2.172022,-0.011851,0.001251,-0.007995,0.398217,-0.540507,-0.316957,-0.669935,-1.546156,-77.592762,-117.30155,0.78,3.0056646424399167,1.7341339584964435,-8.819072765715696,-0.007192997531490677,-0.008482868989561368,0.035343597432870605,3.470049067206978,2.1726262445835,0.03705223555035392
9.574304,-0.055339,2.226458,-0.032265,0.002217,-0.005245,0.398106,-0.540539,-0.316912,-0.669996,-1.526694,-77.593638,-117.335757,0.79,3.008712673411484,1.735941302514291,-8.82968960469724,-0.007552323769947722,-0.008424348150830057,0.03579872294375285,3.4735923993643656,2.2271456240410057,0.03754405146619219
9.598223,-0.043409,2.173982,-0.056764,0.011805,0.011255,0.398003,-0.540612,-0.316722,-0.670089,-1.56411,-77.588405,-117.325789,0.8,3.0172162278538983,1.7406665040650813,-8.855230054949896,-0.007799145617604626,-0.008331698631095391,0.036083957912010294,3.4833193428106846,2.1744153415585075,0.03784568526318065
9.546591,0.008915,2.064497,-0.040169,0.012687,0.018318,0.397967,-0.540662,-0.316566,-0.670144,-1.609754,-77.582918,-117.29797,0.81,3.030190589538577,1.7477303793964967,-8.89310583751354,-0.007935302625213329,-0.008193418371393129,0.03620117309418812,3.498087547216846,2.0645162484790474,0.03795558016626501
9.499675,-0.030713,2.068779,-0.03763,0.009875,0.014922,0.397924,-0.540706,-0.316436,-0.670196,-1.644215,-77.578624,-117.279693,0.8200000000000001,3.0464624726931406,1.7564611896186704,-8.940182151155382,-0.007969952767397391,-0.007996360483536738,0.036154582166780316,3.516545109644442,2.069006969347856,0.03787632162382829
9.503108,-0.097753,2.111004,-0.035054,0.005154,0.012436,0.397869,-0.540762,-0.316328,-0.670234,-1.672155,-77.57754,-117.267,0.8300000000000001,3.064753632257097,1.7661437562526368,-8.993005114619702,-0.007918840536674257,-0.0077267080448834135,0.03595074730642049,3.5372275293205613,2.1132660828738534,0.03761470835386394
9.454471,-0.114429,2.164535,-0.032782,0.009114,0.012983,0.397826,-0.540803,-0.316212,-0.670281,-1.70139,-77.574013,-117.252577,0.84,3.083764555181959,1.7760675337923983,-9.048031090370193,-0.007803130710011666,-0.007371078209677045,0.035598522953411676,3.5586542001700585,2.167557556851951,0.03718166859240291
9.455618,-0.135298,2.149599,-0.021844,0.00102,0.015846,0.397812,-0.540852,-0.316148,-0.67028,-1.730936,-77.575236,-117.230489,0.85,3.102253286140937,1.7855707694678722,-9.101844173892754,-0.007647882512566081,-0.006917685929334407,0.03510894054610029,3.5794187271329867,2.1538526898571777,0.03659210559413779
9.504888,-0.137718,2.115442,-0.01446,-0.005371,0.014243,0.397805,-0.540905,-0.316122,-0.670254,-1.754674,-77.579936,-117.210257,0.86,3.1191050745684783,1.7940783015210409,-9.151349863740414,-0.007480268685587049,-0.006357481789764667,0.03449505511999261,3.598268113716299,2.119920069929053,0.03586475738168449
9.528147,-0.118531,2.130255,-0.00579,-0.010803,0.00623,0.397783,-0.540947,-0.316161,-0.670214,-1.750972,-77.588096,-117.212795,0.87,3.133389372362583,1.8011310758082744,-9.193935224157405,-0.007327664932729116,-0.005685167322948539,0.03377178618713734,3.6141668626499603,2.1335500844803246,0.03502212647921297
9.552234,-0.114447,2.163782,-0.015404,-0.010296,0.008202,0.397742,-0.541009,-0.316157,-0.67019,-1.758949,-77.595692,-117.209514,0.88,3.144401711148484,1.80640606788122,-9.227588528022936,-0.007215744045285366,-0.004899989959629046,0.03295578407279516,3.6263431998573443,2.166806557894128,0.034090476200608226
9.549616,-0.065816,2.140464,-0.015477,-0.006471,0.006381,0.397702,-0.541055,-0.316155,-0.670178,-1.760845,-77.601368,-117.212004,0.89,3.151689083099989,1.809725956222298,-9.250974242945757,-0.0071667043237898685,-0.004006232116881511,0.032065337475308264,3.6343159071765294,2.1414756316969847,0.03309980987927831
9.523368,-0.03384,2.136042,-0.015413,-0.007452,0.004458,0.397645,-0.541105,-0.316152,-0.670173,-1.757467,-77.607452,-117.22154,0.9,3.155058564161506,1.8110585686110316,-9.26346213321791,-0.007197744564336575,-0.003013335160750388,0.03112031195113763,3.637901549276492,2.136310036339295,0.03208366455909566
9.52353,-0.034624,2.135307,-0.005888,-0.007916,0.007243,0.397631,-0.541138,-0.316182,-0.67014,-1.756229,-77.61394,-117.221613,0.91,3.154569970001458,1.8105067786294948,-9.26511204476809,-0.007319870994404178,-0.0019356363061070721,0.030142079573228366,3.6372031138085137,2.1355876956062936,0.031078483880058728
9.549279,-0.052843,2.119532,-0.004789,-0.004019,0.006605,0.397626,-0.541151,-0.316211,-0.670119,-1.751361,-77.617762,-117.224543,0.92,3.150514246017293,1.8082901230516153,-9.256618477790724,-0.007537090131968415,-0.0007917393726521705,0.02915337615245926,3.632582164725794,2.1201906238998887,0.030122315979658726
9.546877,-0.015816,2.149859,-0.004752,-0.005933,0.007516,0.397619,-0.541176,-0.31624,-0.670089,-1.750023,-77.62311,-117.224053,0.93,3.1433800040626725,1.804719905622332,-9.239221199235677,-0.007846011144628877,0.0003964184494991734,0.028178012083924425,3.624617467773741,2.149917176483085,0.029252647802729497
9.548988,-0.050927,2.152963,-0.006023,-0.003111,0.007347,0.397615,-0.541193,-0.316257,-0.67007,-1.750017,-77.626573,-117.223027,0.9400000000000001,3.1338110969974595,1.8001699144168593,-9.214589788786062,-0.00823585613257702,0.0016047091606616287,0.02724037024664912,3.6140536399500247,2.1535652390159905,0.028503371535685818
9.52591,-0.072346,2.137145,-0.010922,-0.00139,0.011221,0.397611,-0.541221,-0.316247,-0.670054,-1.761524,-77.629254,-117.213005,0.9500000000000001,3.122558363536776,1.795045080645183,-9.184691063020132,-0.008688858553005817,0.0028080526723077075,0.02636464864881372,3.6017436853893336,2.138369167085281,0.027901184941503683
9.548261,-0.037823,2.133811,-0.008589,0.001598,0.009842,0.39761,-0.541234,-0.316236,-0.67005,-1.768853,-77.630061,-117.2069,0.96,3.1104287022990915,1.7897504298889715,-9.151648743109844,-0.009181018030004437,0.00398163636969335,0.025573841922720983,3.5885893208019457,2.1341461906462733,0.027462081329281157
9.526347,-0.078129,2.102923,-0.001408,0.000993,0.010259,0.397633,-0.541233,-0.316255,-0.670028,-1.772212,-77.631394,-117.19964,0.97,3.0982344842752108,1.7846625219721743,-9.117604530152738,-0.009683171996830253,0.005102013615106345,0.024888497887356312,3.575482797732939,2.104373846199862,0.027188815530248236
9.549438,-0.0588,2.118659,-0.003814,0.001832,0.009817,0.39765,-0.541233,-0.316264,-0.670014,-1.776248,-77.631937,-117.193151,0.98,3.0867460303992496,1.780105259660904,-9.084588982071159,-0.010162338757334986,0.006148004939679539,0.024325326899285866,3.563253540187386,2.1194747930279805,0.027070142639341176
9.525002,-0.061216,2.118727,-0.00385,0.003746,0.008907,0.397666,-0.541225,-0.316274,-0.670006,-1.777251,-77.631717,-117.189734,0.99,3.076649503199292,1.7763314999136102,-9.05440933643919,-0.010583280895715157,0.007101358609958725,0.023895777046975136,3.5526223783455775,2.119611166979689,0.027082158136005115
9.550046,-0.076152,2.138201,-0.008624,0.00351,0.008933,0.397668,-0.541229,-0.316264,-0.670006,-1.78242,-77.631406,-117.18529,1.0,3.0685121165569993,1.7735113654319203,-9.02855981167227,-0.010910231485179925,0.007947161893520243,0.02360471252512492,3.5441655114812725,2.1395566464819296,0.02719141383995729
9.548428,-0.046546,2.100791,-0.012324,0.006234,0.011156,0.397673,-0.541234,-0.316234,-0.670014,-1.79395,-77.629721,-117.176067,1.01,3.062756075175876,1.7717275770282792,-9.008158079308519,-0.011108717934199428,0.008674025313769096,0.023449341778025084,3.5382896126842462,2.1013065830090096,0.027358983151940127
9.52395,-0.049482,2.101044,-0.012313,0.003382,0.014902,0.397683,-0.541255,-0.316195,-0.670009,-1.81621,-77.629354,-117.156462,1.02,3.059642131903001,1.770977561058268,-8.993909673072567,-0.011147409982563274,0.009274085147176295,0.023418534063064603,3.535218733980662,2.1016265981995947,0.027544530170241506
9.500692,-0.071248,2.085947,-0.004007,0.007611,0.011848,0.397715,-0.54124,-0.316188,-0.670005,-1.82466,-77.626867,-117.145513,1.03,3.059263113822352,1.771181581641344,-8.986100220650842,-0.01099991046352557,0.009742881817792677,0.02349263850843766,3.5349929271130893,2.0871634253965357,0.027709670521483695
9.526128,-0.089871,2.071467,0.000768,0.007845,0.011823,0.397758,-0.541215,-0.316193,-0.669998,-1.830718,-77.623983,-117.134742,1.04,3.0615472362575837,1.772195746511366,-8.984613670419696,-0.010646401617522037,0.010079173279794863,0.02364388172791855,3.537477808239852,2.0734156189076036,0.02782029375419151
9.500389,-0.073599,2.087244,0.00084,0.004015,0.013644,0.397802,-0.541205,-0.316205,-0.669974,-1.841372,-77.623521,-117.118694,1.05,3.066270518008103,1.7738284645760545,-8.988973233141094,-0.010075057633506012,0.01028473451465869,0.02383737327921389,3.5423837047030804,2.0885411962269265,0.027847852973040127
9.523322,-0.075112,2.244608,-0.014981,0.013829,0.01467,0.397827,-0.541193,-0.316141,-0.669999,-1.863947,-77.617097,-117.099451,1.06,3.073077152972168,1.7758588013965502,-8.99840063520885,-0.009283136974156067,0.010364179725415174,0.024032697314422834,3.5492925591752953,2.2458643962198606,0.02776982883757689
9.523003,-0.056822,2.105145,-0.019936,0.01652,0.020472,0.397859,-0.541193,-0.316039,-0.670028,-1.903223,-77.609343,-117.066285,1.07,3.0815063061985466,1.7780551800311821,-9.01188852408069,-0.008277676673895059,0.010324825875672365,0.02418601747709551,3.557690450050022,2.105911729087665,0.02756964638661275
9.523888,-0.078157,2.091212,-0.012781,0.014971,0.023728,0.39792,-0.541188,-0.315955,-0.670035,-1.947914,-77.602109,-117.02329,1.08,3.0910235105138097,1.7801929952199689,-9.028280491074637,-0.007075725553497492,0.010176597879491631,0.02425257403827089,3.5670034262359995,2.092672010992884,0.02723630635734409
9.502406,-0.135104,2.080258,0.004077,0.010024,0.023992,0.398018,-0.541168,-0.315938,-0.670002,-1.983093,-77.597995,-116.98023,1.09,3.1010546638934375,1.7820699318905728,-9.046353172831749,-0.0057040742585180325,0.00993195968159752,0.02418941189334547,3.5766343495811412,2.084640601489859,0.026763929719110572
9.525621,-0.128553,2.149696,0.012802,0.000776,0.017788,0.398103,-0.541154,-0.315979,-0.669943,-1.999617,-77.599118,-116.951867,1.1,3.111020578934913,1.7835180829682467,-9.064895232004973,-0.004198466838588368,0.009605844064507062,0.023958150637441642,3.585998577081599,2.1535363396574017,0.02615133545256718
9.55129,-0.159529,2.188236,0.014923,0.008601,0.021279,0.398218,-0.541112,-0.316008,-0.669894,-2.021625,-77.595866,-116.91593,1.11,3.1203701122384104,1.7844123143039925,-9.082778653410475,-0.0026023098537258467,0.00921554896473516,0.02352759765569659,3.594556571371562,2.194043366375651,0.025401697005211474
9.548449,-0.11133,2.166601,0.003118,0.007966,0.014198,0.39828,-0.541081,-0.31602,-0.669877,-2.030968,-77.592654,-116.899439,1.12,3.128610090136509,1.7846746834268932,-9.09901866089518,-0.0009649277673090464,0.008780569561558184,0.02287601267677084,3.601841865180766,2.1694594400681937,0.024522264239039308
9.5987,-0.132612,2.1182,-0.009015,0.011267,0.019579,0.39833,-0.541076,-0.315968,-0.669877,-2.061989,-77.587905,-116.868316,1.1300000000000001,3.1353305298809677,1.7842750424549034,-9.112819587530884,0.0006605564442964952,0.008322341717727812,0.021992854355402564,3.607483188974152,2.1223470928535697,0.02352410145320505
9.569684,-0.064052,2.146534,-0.017457,0.014697,0.018992,0.398358,-0.541076,-0.315878,-0.669902,-2.097013,-77.580981,-116.838664,1.1400000000000001,3.140224012359371,1.7832282184539991,-9.123605137961121,0.0022196125940166568,0.007863880660170125,0.020879871525351798,3.6112199776376146,2.1474894346329156,0.02242178257900366
9.544831,-0.055865,2.094346,-0.013907,0.012977,0.023458,0.39841,-0.541081,-0.315796,-0.669906,-2.140697,-77.575162,-116.797442,1.1500000000000001,3.1430984697142925,1.7815883601826785,-9.131032590813472,0.003658847351201931,0.007429306696109775,0.0195514409283678,3.6129108867309103,2.0950909445513335,0.021233007424755316
9.469723,-0.040087,2.144485,-0.005462,0.00954,0.024049,0.398479,-0.541082,-0.315744,-0.669889,-2.181661,-77.571029,-116.754655,1.16,3.1438830766768966,1.7794411713101912,-9.1349915333376,0.004928572330396221,0.007043256559652761,0.018034099636117653,3.6125353537327736,2.1448596417467507,0.01997816402641789
9.4939,-0.040828,2.145554,0.004208,0.008051,0.020152,0.398561,-0.541062,-0.315741,-0.669857,-2.206805,-77.568092,-116.721789,1.17,3.1426273396237403,1.7768948195948924,-9.13558864084828,0.005985262659553203,0.006730185656463589,0.016365275349730948,3.6101886094293953,2.1459424252528305,0.0186799626698455
9.5193,-0.059949,2.131132,0.004296,0.008016,0.01539,0.398626,-0.541035,-0.315747,-0.669837,-2.220357,-77.565048,-116.701365,1.18,3.1394938269976365,1.7740703205623851,-9.133120758686129,0.006793771743596299,0.006513574590801474,0.014591280213320876,3.606070852334517,2.131975019559329,0.01736339387094791
9.494235,-0.059482,2.1659,-0.001704,0.005837,0.0199,0.398688,-0.541034,-0.31573,-0.66981,-2.248437,-77.563378,-116.668961,1.19,3.134745257394438,1.771092147025615,-9.128039072126604,0.007329172614867807,0.006415063694004117,0.01276469789143371,3.6004715277325445,2.16671662160145,0.016056379594299276
9.494792,-0.076881,2.185253,-0.013563,0.003333,0.018485,0.398712,-0.541061,-0.315681,-0.669797,-2.280798,-77.562847,-116.638921,1.2,3.1287268556698824,1.768079721352281,-9.120907434354887,0.007578109037614179,0.006453550959952074,0.010941349662890319,3.5937498018708967,2.1866049853985974,0.01479152422924352
9.493536,-0.060173,2.200863,-0.008783,0.000702,0.02221,0.398754,-0.541095,-0.315644,-0.669762,-2.319455,-77.564057,-116.599839,1.21,3.121845018482078,1.7651403178774077,-9.112357963917505,0.007539562543957485,0.006644299518851565,0.009177063140564287,3.5863124042974452,2.2016854304595834,0.013609195690280945
9.495281,-0.084723,2.150929,-0.005056,-0.003938,0.020896,0.398796,-0.541133,-0.31563,-0.669712,-2.353545,-77.567631,-116.563332,1.22,3.1145434218759416,1.762363750793795,-9.103046848021943,0.0072249748326465284,0.006998107906093863,0.007524480889933068,3.578590045934666,2.1525969315619684,0.012561512180493123
9.497723,-0.124583,2.119692,-0.005055,-0.003941,0.020897,0.398837,-0.541173,-0.315618,-0.669661,-2.387181,-77.571519,-116.527206,1.23,3.1072777733616954,1.7598190599439534,-9.093612943207383,0.006657706056191611,0.007520598211462358,0.006030135698011967,3.5710136214483468,2.123349970860433,0.011715245790223077
9.519811,-0.08762,2.15032,-0.005022,-0.005858,0.021808,0.398875,-0.541217,-0.315607,-0.669608,-2.421497,-77.576043,-116.490623,1.24,3.1004904647483995,1.7575532437484025,-9.084641303678824,0.005871854519453619,0.008211673527295743,0.004731989348939483,3.56399137577608,2.152104404251801,0.011149079819204558
9.494365,-0.072301,2.164939,-0.009795,-0.006088,0.021832,0.398902,-0.541275,-0.315581,-0.669557,-2.460563,-77.581128,-116.451718,1.25,3.094586410151987,1.7555919330341863,-9.076633240962815,0.00491050787507861,0.009065187889371804,0.0036575888481245222,3.5578881496236043,2.166145957298815,0.010939317860028894
9.494373,-0.062674,2.110982,-0.015708,-0.008297,0.02158,0.398911,-0.541349,-0.315541,-0.669511,-2.501969,-77.587063,-116.413642,1.26,3.0899113365306206,1.7539417564108892,-9.069983970931974,0.003823535947945744,0.010068860459539048,0.002822943390533562,3.5530077051003084,2.1119121749258416,0.01113419900509504
9.518377,-0.060156,2.144853,-0.018082,-0.006512,0.018302,0.398904,-0.541419,-0.315498,-0.669479,-2.536716,-77.592468,-116.384023,1.27,3.086733710585661,1.7525940214912838,-9.064968371957779,0.0026650671913290504,0.011204452288640374,0.0022321707948058885,3.549578961543596,2.1456964221308197,0.011731364825965537
9.564984,-0.021712,2.175357,-0.010758,-0.01099,0.015776,0.398898,-0.541485,-0.315492,-0.669432,-2.561003,-77.600205,-116.361404,1.28,3.0852313206315256,1.7515292359859969,-9.06173488811176,0.0014908113327694115,0.012448209677141824,0.0018779070299245737,3.5477467449522715,2.1754653498488548,0.012677025574204748
9.519867,-0.082657,2.127836,-0.010908,-0.004273,0.014977,0.398903,-0.541529,-0.315477,-0.669401,-2.582773,-77.604408,-116.340865,1.29,3.0854832807671215,1.7507219332767772,-9.060307181854874,0.00035539774418214773,0.013771563775166458,0.0017424206819672357,3.5475673867524793,2.1294408239124656,0.013885903146824622
9.519995,-0.084117,2.12721,-0.003586,-0.00875,0.012449,0.398912,-0.541567,-0.315501,-0.669353,-2.594641,-77.610919,-116.326267,1.3,3.087467896964279,1.7501452626083842,-9.060592782081228,-0.0006901084086152866,0.015142062240570645,0.0017993296234424206,3.549009221601939,2.1288724841542295,0.015264202750447016
9.521291,-0.1043,2.111066,-0.003673,-0.005865,0.013469,0.398929,-0.541599,-0.315517,-0.66931,-2.608553,-77.61607,-116.309531,1.31,3.0910664548878177,1.7497748605112853,-9.062397691401998,-0.0016003712428826864,0.01652449587249668,0.0020157825151554385,3.5519577546769936,2.113640969123186,0.01672374154020601
9.520889,-0.102086,2.1449,-0.003647,-0.004919,0.010632,0.398939,-0.541621,-0.315539,-0.669275,-2.615637,-77.620429,-116.299693,1.32,3.0960725936622526,1.7495916313026958,-9.06544571258314,-0.0023375214916026097,0.01788217149743916,0.0023549439588825692,3.556225018407994,2.14732800507887,0.018187408425529107
9.499075,-0.15426,2.16642,-0.007159,-0.007971,0.010823,0.398934,-0.541663,-0.315555,-0.669237,-2.624919,-77.626854,-116.289741,1.33,3.102206559553498,1.74958321257533,-9.069401124141578,-0.0028723961557214246,0.019178272600660986,0.0027786084993410383,3.561562431835523,2.171905100136744,0.019590239018788858
9.497452,-0.121271,2.162151,-0.007184,-0.008919,0.013661,0.398944,-0.541709,-0.315567,-0.669188,-2.643022,-77.633387,-116.270076,1.34,3.109133326092035,1.7497440617740463,-9.073893270803323,-0.003185252001563521,0.02037724220344813,0.0032497643828543967,3.567676319557263,2.1655492610979783,0.020879147460457312
9.498111,-0.126205,2.126985,-0.008413,-0.008013,0.014405,0.398947,-0.541759,-0.315569,-0.669145,-2.662408,-77.639739,-116.250517,1.35,3.116483349888715,1.7500742493608217,-9.078541627057188,-0.003265963859205812,0.021446119330810597,0.0037349330446425338,3.574245143860369,2.130725907349418,0.022012548219798846
9.522204,-0.12303,2.160556,-0.008293,-0.012819,0.014296,0.398934,-0.541832,-0.31557,-0.669092,-2.685051,-77.648893,-116.229622,1.36,3.123874618618936,1.7505771684471139,-9.08297993645965,-0.003113752346590137,0.022355761881014537,0.004206125798968574,3.580937454848928,2.164056055197277,0.022960118405471415
9.498046,-0.12596,2.159271,-0.015554,-0.009314,0.014901,0.398918,-0.541902,-0.31555,-0.669056,-2.710034,-77.655973,-116.208523,1.37,3.1309346399231153,1.7512564649386053,-9.086878125521546,-0.002736510884967456,0.023081895073309527,0.004642286406756173,3.5874295708013206,2.162941786789695,0.023702598909848875
9.521993,-0.111123,2.139544,-0.016719,-0.012244,0.017465,0.398896,-0.541989,-0.315519,-0.669013,-2.74262,-77.664428,-116.181454,1.3800000000000001,3.137321104885815,1.752112555281971,-9.089960841915032,-0.0021498172337432405,0.023605935609744073,0.005030127207696338,3.593422062816817,2.1424277931974745,0.02423146899953632
9.522733,-0.116652,2.1039,-0.021458,-0.014392,0.018403,0.398868,-0.542092,-0.31548,-0.668964,-2.78086,-77.674312,-116.15025,1.3900000000000001,3.1427401157311237,1.7531391300574077,-9.09202167551807,-0.0013757201383065674,0.023915556376155327,0.005364315376742914,3.59865422684149,2.107131438497371,0.024548366995406565
9.545748,-0.09528,2.152813,-0.019203,-0.008519,0.018047,0.398859,-0.542167,-0.315439,-0.668928,-2.816557,-77.680444,-116.119638,1.4000000000000001,3.1469610702597404,1.754320039727978,-9.092932386774248,-0.00044138828648446535,0.024004973567189693,0.005647020581692603,3.6029158718351315,2.154920437363988,0.024664193095071677
9.520901,-0.083081,2.132854,-0.014374,-0.009265,0.016092,0.39885,-0.542236,-0.31542,-0.668887,-2.844108,-77.687452,-116.095222,1.41,3.149827524540997,1.7556269234739017,-9.092646781633974,0.0006223010693434214,0.023874955886948435,0.005886890521891049,3.6060559242450054,2.134471512547544,0.02459789131696801
9.546541,-0.102378,2.116834,-0.013207,-0.006337,0.013531,0.398841,-0.54229,-0.3154,-0.668858,-2.866267,-77.692696,-116.076125,1.42,3.151263595210761,1.7570178747119167,-9.091199218556415,0.0017821698843749933,0.023532572273612957,0.0060975706558088205,3.6079875358096554,2.119308245263062,0.02437495549149108
9.545127,-0.081743,2.165913,-0.010774,-0.009105,0.01488,0.398837,-0.542349,-0.315396,-0.668814,-2.888607,-77.699643,-116.054931,1.43,3.151275703188882,1.7584373421429205,-9.088698085877523,0.0030040937272689523,0.022990708961889175,0.006295923113057857,3.608689574312432,2.1674549687635962,0.024025734651370062
9.545221,-0.083229,2.165441,-0.013297,-0.000584,0.010806,0.398832,-0.542376,-0.315377,-0.668804,-2.90158,-77.701489,-116.044345,1.44,3.1499496953845805,1.7598173517119637,-9.085314918245212,0.0042542656636569455,0.022267397467876242,0.006500122249210619,3.6082045666563753,2.167039868327761,0.023583624733785828
9.570705,-0.102339,2.150079,-0.020492,-0.000916,0.013234,0.39881,-0.542424,-0.315329,-0.668801,-2.924106,-77.703795,-116.028661,1.45,3.147443606296305,1.7610800150896209,-9.081270099266598,0.005500341948046951,0.0213850014307773,0.006727807058431983,3.6066333434885713,2.1525131770007815,0.023083228447409156
9.544559,-0.071078,2.146554,-0.021803,0.002874,0.015002,0.398794,-0.542466,-0.315258,-0.66881,-2.9525,-77.703664,-116.0085,1.46,3.1439765344814865,1.7621411775532994,-9.076816298380068,0.00671244769482496,0.02036931182573017,0.006994453013495323,3.604126798407507,2.14773046656232,0.022558550291798134
9.56948,-0.087165,2.165981,-0.021832,0.00479,0.014095,0.39878,-0.5425,-0.315191,-0.668822,-2.977287,-77.702676,-115.991287,1.47,3.13981430553435,1.7629149637974861,-9.072220895792986,0.007864023330576378,0.01924859722927494,0.007312090728356279,3.6008753162001104,2.1677341694926526,0.022041280113877557
9.546048,-0.109015,2.150833,-0.015917,0.006993,0.014344,0.398781,-0.542518,-0.315131,-0.668835,-3.000227,-77.70028,-115.973778,1.48,3.135252766082554,1.763318911371969,-9.067748653366529,0.008932493147710573,0.01805264974931459,0.007688452263317486,3.597096536156673,2.1535939413255227,0.021559218330232572
9.569615,-0.094053,2.132921,-0.013599,0.009029,0.015806,0.398802,-0.542523,-0.315079,-0.668843,-3.024192,-77.696812,-115.952579,1.49,3.130599691018182,1.7632793400611315,-9.063645795617637,0.009899737135330117,0.01681185968977354,0.00812657572961831,3.5930221898131323,2.1349936672154324,0.021134915534879433
9.545618,-0.112254,2.152572,-0.01118,0.012007,0.009663,0.398815,-0.542502,-0.315044,-0.668868,-3.030794,-77.691492,-115.947633,1.5,3.1261563749851193,1.7627365892259175,-9.060126486553722,0.010752348120000938,0.015556344790587975,0.008624852340216354,3.5888847799638155,2.1554969672212487,0.02078463209267551
9.545946,-0.129,2.172654,-0.013633,0.013818,0.011155,0.398828,-0.542484,-0.314994,-0.668899,-3.041893,-77.685423,-115.939621,1.51,3.1222000066762603,1.7616497598640037,-9.057362444382118,0.011481659774156699,0.014315154138540644,0.009177461997513936,3.584904846452433,2.176480278733534,0.020517747388431262
9.518947,-0.081689,2.151468,-0.013578,0.01285,0.009225,0.398831,-0.542466,-0.314949,-0.668934,-3.047526,-77.679639,-115.937681,1.52,3.118967883296164,1.7600006204594367,-9.055476150950565,0.012083538472940216,0.013115562802133792,0.009775115743838653,3.581279497756431,2.1530182646101728,0.020336734680109887
9.519295,-0.098447,2.171436,-0.018318,0.010702,0.010162,0.398822,-0.542466,-0.314893,-0.668965,-3.05913,-77.675383,-115.931899,1.53,3.1166444116756606,1.757796374114239,-9.054537811669878,0.012557943583507527,0.011982470265148515,0.010406005730851377,3.578172785330285,2.1736665139586155,0.020237749281287132
9.497414,-0.154225,2.160214,-0.012457,0.013869,0.012343,0.398849,-0.542444,-0.314845,-0.668989,-3.073886,-77.668886,-115.918738,1.54,3.11535166723054,1.755071039996827,-9.05456592960441,0.012908275678707823,0.010937912757514427,0.011056855077685966,3.5757083726097756,2.165712325407278,0.0202117678765977
9.471066,-0.122511,2.157762,-0.009974,0.010136,0.01176,0.398868,-0.542433,-0.314813,-0.669002,-3.084956,-77.664903,-115.908609,1.55,3.1151440524697893,1.751885277248476,-9.055531096479958,0.013140548636146979,0.010000695687390412,0.011713960824743538,3.5739648140794382,2.161237097998505,0.020246106067448123
9.546737,-0.173328,2.14729,-0.00643,0.011266,0.012478,0.398903,-0.542408,-0.314789,-0.669013,-3.095548,-77.659859,-115.896666,1.56,3.116007327429049,1.7483245748146492,-9.057362391491854,0.01326243759853324,0.009186147248645044,0.01236413321247332,3.5729736191990487,2.154274109690779,0.020326075430947384
9.544846,-0.140328,2.144781,-0.006318,0.006462,0.012361,0.398928,-0.542402,-0.314775,-0.669009,-3.106603,-77.65796,-115.884408,1.57,3.1178619938734564,1.7444958415534093,-9.059955629389366,0.013282268516292061,0.008505988368473768,0.012995453185815629,3.572720133740915,2.1493667638504603,0.020436543214746958
9.471534,-0.145145,2.144736,-0.006292,0.007417,0.009524,0.398949,-0.542384,-0.314769,-0.669014,-3.1094,-77.655156,-115.880091,1.58,3.120570726192151,1.7405225466486818,-9.063182621474935,0.013208024974339403,0.007968308473641881,0.013597795370864729,3.573147127191913,2.1496417331083335,0.020563217224009393
9.543952,-0.12728,2.12713,-0.011058,0.004314,0.013297,0.398961,-0.542396,-0.314741,-0.66901,-3.125915,-77.654456,-115.865024,1.59,3.123949278837889,1.7365386669785532,-9.066900612255864,0.013046452963044582,0.007577632139863272,0.0141630924097635,3.5741608299940024,2.1309345919807114,0.020693564950764864
9.544418,-0.144101,2.146437,-0.006263,0.005495,0.010431,0.398981,-0.542387,-0.314735,-0.669008,-3.132254,-77.652788,-115.857186,1.6,3.1277800836496117,1.7326817836546968,-9.070961131256603,0.012802343108856997,0.007335059165914609,0.014685344665845179,3.575639021920976,2.151268670615086,0.02081735886223403
9.519308,-0.130882,2.127919,-0.003892,0.006567,0.009965,0.399005,-0.542372,-0.314736,-0.669006,-3.135628,-77.650902,-115.851367,1.61,3.1318275936611815,1.7290857278640424,-9.075217646658784,0.012478061795410474,0.007238460019152641,0.015160403901051361,3.5774406397200655,2.131940282579463,0.020926900775364875
9.518128,-0.113184,2.143816,-0.007379,0.001596,0.011059,0.399021,-0.542381,-0.314731,-0.668991,-3.146267,-77.651524,-115.839709,1.62,3.135854338576761,1.7258732055646695,-9.07953160700091,0.0120733871680175,0.007282709602111232,0.015585578916925287,3.5794162588970795,2.146801728085759,0.021017012324144428
9.51865,-0.129908,2.162845,-0.009777,0.002443,0.01062,0.399025,-0.542392,-0.314719,-0.668986,-3.155319,-77.651976,-115.831531,1.6300000000000001,3.139636631804886,1.723148834167828,-9.083776682589459,0.011585683501063882,0.007459944518558848,0.015959124711867546,3.5814187250955554,2.1667428510298583,0.021084887857793822
9.494219,-0.132273,2.162745,-0.006152,0.000689,0.010314,0.399039,-0.5424,-0.314723,-0.668969,-3.162777,-77.653094,-115.822433,1.6400000000000001,3.1429789089550004,1.7209930055925062,-9.08784124003044,0.011010419051435063,0.007759832199279792,0.01627968416885622,3.5833131802054776,2.1667861180914927,0.021129894464641592
9.543524,-0.134234,2.128624,0.003522,-0.005583,0.011046,0.399067,-0.542412,-0.31477,-0.66892,-3.166483,-77.658124,-115.811925,1.6500000000000001,3.1457257810793324,1.7194569520298049,-9.091629273695727,0.010342000636907421,0.00816984412727979,0.01654575243728306,3.5849857600318025,2.1328522921505835,0.02115337452875309
9.492709,-0.087465,2.105154,0.013275,-0.011862,0.007008,0.399098,-0.542418,-0.314871,-0.66885,-3.154186,-77.666491,-115.812221,1.6600000000000001,3.14777104832937,1.7185593355987732,-9.09506015456795,0.009574866042835002,0.008675529610525898,0.016755229070846554,3.5863503402030146,2.10697021572233,0.02115846343612617
9.468109,-0.097532,2.191635,0.006156,-0.006446,-0.002825,0.399086,-0.542406,-0.314966,-0.668822,-3.120206,-77.67245,-115.838745,1.67,3.1490631328699057,1.718284611738563,-9.098067626343102,0.008704746821763643,0.00926079055206486,0.016905112092355054,3.58735287109283,2.193804107993465,0.021149885903600216
9.493283,-0.11176,2.209804,-0.02235,-0.012597,-0.002774,0.398987,-0.542471,-0.314975,-0.668824,-3.103942,-77.681618,-115.864118,1.68,3.1496066405329093,1.7185833280642326,-9.10059847937855,0.007729992930726542,0.009908160746085252,0.01699137207139725,3.5879730553042526,2.212628304983917,0.021133650062116708
9.566446,-0.096938,2.156798,-0.039587,0.002951,0.008705,0.398904,-0.542538,-0.314867,-0.66887,-3.125,-77.681839,-115.861133,1.69,3.1494600299203093,1.7193744152628,-9.102611274629886,0.006652839938089346,0.010599094520577928,0.017009023746412364,3.5882233570286464,2.15897535619284,0.02111653316015679
9.539592,-0.02575,2.028254,-0.024208,0.002724,0.017414,0.398891,-0.542586,-0.314786,-0.668877,-3.159776,-77.681561,-115.835247,1.7,3.1487296335006145,1.7205494084231427,-9.104075388664844,0.005480500421321946,0.01131426833039419,0.016952389511332853,3.5881455616669373,2.0284174498894454,0.02110526149717693
9.468675,-0.081109,2.049544,-0.019197,-0.0057,0.014308,0.398869,-0.54265,-0.314748,-0.668856,-3.185092,-77.686554,-115.815947,1.71,3.1475605174160353,1.7219784156370386,-9.104970527052027,0.004225972497154121,0.012033895311492305,0.01681552728285022,3.5878053005585664,2.051148282747252,0.021105341449854337
9.495475,-0.143522,2.124483,-0.023834,-0.006892,0.007635,0.398816,-0.542711,-0.314717,-0.668852,-3.196351,-77.692027,-115.812916,1.72,3.1461248689330654,1.7235175361585409,-9.1052867288406,0.002908477251273581,0.0127380485530448,0.01659278052816602,3.5872850999558294,2.129325381845856,0.021119599582302407
9.447372,-0.162786,2.142343,-0.023964,-0.003053,0.010597,0.398772,-0.54277,-0.314668,-0.668854,-3.214307,-77.695622,-115.803946,1.73,3.1446087485496226,1.7250173270545166,-9.105024780726216,0.0015534602617141885,0.013406986915779172,0.016279404589412304,3.5866765898381656,2.1485187482181765,0.02114662031461239
9.446808,-0.136414,2.069766,-0.01075,-0.008196,0.012038,0.398763,-0.542819,-0.314668,-0.668819,-3.229505,-77.701784,-115.790078,1.74,3.1431981259783885,1.7263318235804466,-9.104196889078825,0.0001921191477127171,0.014021480007340261,0.0158722299008131,3.5860725068325996,2.074256511175028,0.021179388409192226
9.498528,-0.188112,2.056612,0.003923,-0.020006,0.005905,0.398752,-0.542871,-0.314759,-0.668741,-3.22169,-77.715227,-115.79113,1.75,3.142065132814071,1.727327536470438,-9.102827420326085,-0.0011395505742816433,0.014563136032433768,0.015370333200257765,3.5855590522392653,2.0651970954579615,0.021204495968955794
9.522385,-0.180392,2.123693,0.008843,-0.019781,-0.003667,0.398723,-0.542899,-0.314887,-0.668675,-3.187565,-77.728644,-115.81672,1.76,3.1413554204730074,1.7278917920117605,-9.10095350350061,-0.0024021647065232297,0.015014744171040387,0.014775694789792349,3.585209048666027,2.131340712301297,0.02120221908952348
9.496395,-0.14348,2.152454,0.004184,-0.024814,-0.003756,0.398674,-0.542951,-0.315015,-0.668602,-3.154814,-77.745144,-115.843137,1.77,3.141177427533111,1.7279397685597884,-9.098625282475343,-0.00355475069902251,0.015360647196714448,0.014093818045925913,3.5850762160676566,2.1572308018652064,0.02114761078575543
9.544074,-0.106417,2.147248,-0.008921,-0.024478,-0.005313,0.398589,-0.543024,-0.315102,-0.668553,-3.126751,-77.761184,-115.872057,1.78,3.1415942476338365,1.7274196326995723,-9.09590561001328,-0.004556837421367523,0.015587156661663094,0.013334275493860771,3.5851907904882743,2.1498833808820885,0.021012546800094924
9.568343,-0.089624,2.126512,-0.009102,-0.019676,-0.000419,0.398522,-0.543091,-0.315165,-0.668508,-3.109541,-77.774635,-115.890358,1.79,3.1426186484932823,1.726315295920941,-9.092869002456458,-0.005370698429344461,0.015683010946269706,0.012511126594925821,3.5855566472708738,2.128399809133613,0.0207684742490641
9.593127,-0.088558,2.124912,-0.009129,-0.017756,-0.001324,0.39846,-0.543146,-0.315229,-0.668471,-3.089224,-77.786575,-115.911323,1.8,3.1442116193235017,1.7246464956091534,-9.089599735251378,-0.0059635865558414995,0.01563985726540384,0.011643132260019395,3.5861500584757815,2.126756574483314,0.020389507809545654
9.569497,-0.093099,2.088885,-0.002123,-0.01261,0.001133,0.398429,-0.543178,-0.315298,-0.668431,-3.071037,-77.795933,-115.92653,1.81,3.14628461391559,1.7224661417045877,-9.086189059366436,-0.0063097844533637724,0.015452716477007878,0.010753678792218143,3.5869201944120057,2.0909586239392683,0.019855513942804506
9.593733,-0.088998,2.122157,0.001427,-0.014364,0.005592,0.398422,-0.543213,-0.315369,-0.668372,-3.063712,-77.805828,-115.928369,1.82,3.1487054113447206,1.71985514077179,-9.082731648073874,-0.006392299740383199,0.015120370464657739,0.009870328095919185,3.587791447767091,2.1240223578514894,0.019154907352438143
9.570213,-0.105762,2.139602,0.003862,-0.010405,-0.003393,0.398396,-0.543219,-0.315466,-0.668338,-3.029751,-77.81406,-115.956205,1.83,3.1513072462359277,1.7169151770418487,-9.079321522948048,-0.006204056605346606,0.014645602575188734,0.009023936244451773,3.5886675919254083,2.142214349463657,0.018287028695133885
9.545829,-0.094303,2.08541,0.001384,-0.006673,-0.002802,0.398371,-0.543215,-0.315544,-0.668318,-2.998184,-77.819793,-115.98306,1.84,3.1539005882497917,1.7137601519271646,-9.07604783112012,-0.005748476729851027,0.01403522673681405,0.008247327016947283,3.5894376688968705,2.087541119094184,0.017264152953211674
9.547654,-0.128192,2.087824,0.003913,-0.011367,-0.005325,0.398337,-0.543221,-0.315648,-0.668285,-2.959124,-77.828626,-116.01608,1.85,3.1562867082642585,1.7105071211496572,-9.07299092483723,-0.005039396504856998,0.013299861293707894,0.00757356284373992,3.5899833420601435,2.091755780161728,0.016113369657309806
9.547219,-0.112124,2.068232,0.000182,-0.004807,-0.004891,0.398304,-0.543211,-0.315723,-0.668277,-2.922528,-77.833364,-116.048917,1.86,3.1582719917547415,1.7072676002133662,-9.070219205702335,-0.0041003277824580445,0.012453435811826329,0.007033911824428561,3.590187269856653,2.071269030618669,0.014878732035919988
9.522995,-0.11305,2.067324,0.002618,-0.010464,0.000195,0.398286,-0.543225,-0.315806,-0.668238,-2.898659,-77.841511,-116.067157,1.87,3.159681876383217,1.7041400331174417,-9.067787127672366,-0.0029631282751741276,0.0115124564600756,0.006655656034606093,3.589941895409741,2.070412718149693,0.013624042724949936
9.498797,-0.11406,2.066293,0.003783,-0.007522,-0.002366,0.398276,-0.543216,-0.315898,-0.668207,-2.866964,-77.847566,-116.091481,1.8800000000000001,3.1603733147545556,1.7012040511818123,-9.065734609459838,-0.0016661984062117216,0.010495090276137832,0.0064599165022718626,3.5891579391787856,2.069438678832741,0.012435982399853648
9.523746,-0.116021,2.031386,0.002538,-0.00758,0.001222,0.398266,-0.543222,-0.315972,-0.668174,-2.84543,-77.85403,-116.107376,1.8900000000000001,3.1602447918976955,1.698516914830991,-9.064087909741712,-0.0002523586251789444,0.009420154123239865,0.00645968122521828,3.5877718509798666,2.0346965261279135,0.011424993221561786
9.523873,-0.116096,2.030784,-0.004657,-0.005035,-8.4e-05,0.398237,-0.543226,-0.316023,-0.668163,-2.822374,-77.858581,-116.128666,1.9000000000000001,3.159243143197384,1.696112264328892,-9.062861801053938,0.0012334186201322446,0.008306106642134756,0.006658214740080201,3.585751532251861,2.0340997851314966,0.010716555069985192
9.473427,-0.093495,2.114015,-0.003445,-0.009788,0.00575,0.398223,-0.543258,-0.316069,-0.668124,-2.816573,-77.866178,-116.131974,1.9100000000000001,3.157366695807886,1.694001042214238,-9.062062678206994,0.0027462464514846946,0.007170140308151179,0.00704800326950355,3.583099772936798,2.1160814576121596,0.010422434058213048
9.547564,-0.096962,2.044943,-0.005822,-0.007978,0.002477,0.398197,-0.543281,-0.316112,-0.6681,-2.803677,-77.872472,-116.143591,1.92,3.1546645645929035,1.692174224847319,-9.061692088588034,0.004243371000485082,0.006027457533136155,0.007610351637863701,3.5798550420842123,2.0472404603985823,0.01059499380903322
9.595687,-0.088585,2.113321,0.001243,-0.006676,0.006741,0.398203,-0.543295,-0.316165,-0.66806,-2.797408,-77.878261,-116.144631,1.93,3.15123224262533,1.690606839919733,-9.061750099622538,0.005685899814492751,0.004890792690500371,0.00831570090978487,3.576089503094805,2.1151768132394984,0.011198222692146173
9.620615,-0.091059,2.078423,-0.002229,-0.007808,0.001258,0.398182,-0.54331,-0.316222,-0.668034,-2.779665,-77.884556,-116.15938,1.94,3.1472039105554717,1.6892626677307119,-9.06223793528103,0.007040122883855259,0.0037702145530723397,0.009124683431293301,3.57190436814934,2.080416763153479,0.012125910098516294
9.667757,-0.076148,2.216463,-0.019418,0.012556,0.003345,0.398151,-0.543296,-0.316177,-0.668085,-2.773686,-77.879432,-116.172231,1.95,3.142742128698391,1.6880990319831473,-9.063159418121076,0.008278382806813561,0.00267321437104139,0.009989878863946065,3.567422939501025,2.217770670802777,0.013246711919793716
9.620236,-0.092421,2.080116,-0.017228,0.018436,0.007767,0.398152,-0.543261,-0.316116,-0.668142,-2.777121,-77.87043,-116.173947,1.96,3.1380257564849794,1.687071173860327,-9.064520934190323,0.009379494394334437,0.0016050566971849208,0.010858184404829094,3.562781889764456,2.082168152358738,0.014437842313303018
9.546043,-0.081531,2.062697,-0.005425,0.021885,0.01109,0.3982,-0.5432,-0.316078,-0.668181,-2.782549,-77.859753,-116.16693,1.97,3.1332370575697652,1.6861358520724918,-9.066329874182177,0.010328751809096011,0.0005693456198331616,0.011673667482345447,3.558121494633463,2.064307684859503,0.015597492774708914
9.498679,-0.109926,1.98002,0.010202,0.019739,0.00637,0.398274,-0.543107,-0.316106,-0.668198,-2.768972,-77.850212,-116.170168,1.98,3.128548991326223,1.6852539932540167,-9.068591764305747,0.011117588833381294,-0.00043125949131169367,0.012380732469282594,3.553575637707313,1.9830690673488907,0.016645398844513132
9.548741,-0.16337,2.125731,0.022452,0.007806,0.002628,0.398347,-0.543024,-0.316213,-0.668172,-2.73775,-77.847825,-116.184303,1.99,3.1241136605417004,1.6843923982810534,-9.071306541750987,0.011742972086856467,-0.001394255320946999,0.012927406999113046,3.5492624466739935,2.131999540633393,0.017520250941507547
9.523746,-0.161206,2.160765,0.015238,0.009387,0.004161,0.398406,-0.542953,-0.316284,-0.668161,-2.714937,-77.844232,-116.194601,2.0,3.1200527791716843,1.6835246558136354,-9.074464602882305,0.012206607653342421,-0.002316511270010595,0.013268539963482266,3.5452763801358804,2.16677012155443,0.018177503888852555
9.474561,-0.15126,2.108257,0.003298,0.012667,5e-05,0.398426,-0.542888,-0.316323,-0.668184,-2.687249,-77.83913,-116.216347,2.0100000000000002,3.116450845171699,1.682631495047529,-9.078043314051378,0.012514031978624232,-0.003193562868536233,0.013368701855813434,3.5416824559095184,2.113676220628174,0.018588222870058152
9.522064,-0.130301,2.125284,-0.00386,0.010404,0.003393,0.398431,-0.54285,-0.31633,-0.668208,-2.673178,-77.834979,-116.229022,2.02,3.1133514651600303,1.6817008133208342,-9.082004604878557,0.012673644311920132,-0.004019040917825774,0.013204587089739133,3.538513101733278,2.1292746256077444,0.018738598406890756
9.569035,-0.094268,2.123198,-0.006222,0.006444,0.007607,0.39844,-0.542836,-0.316329,-0.668214,-2.671805,-77.833235,-116.229429,2.0300000000000002,3.1107570078475337,1.680727555019587,-9.086294075202154,0.012695726802316626,-0.0047842813639746035,0.01276673652152085,3.5357678481589625,2.1252896750861985,0.018629556855133986
9.569933,-0.113825,2.108173,-0.003774,0.004635,0.006111,0.39845,-0.542819,-0.316345,-0.668215,-2.664858,-77.832179,-116.233966,2.04,3.108631495602501,1.6797135303111095,-9.090841783180585,0.012591493222284937,-0.0054781486335901556,0.01206042870107753,3.533415814670282,2.111243597634816,0.018275933751037945
9.542789,-0.062613,2.120796,-0.000281,0.006725,0.008759,0.39848,-0.542794,-0.31636,-0.66821,-2.663104,-77.830243,-116.231281,2.05,3.1069064037896625,1.67866718167926,-9.09556460314875,0.01237220773884953,-0.006087095349958089,0.011105634280921298,3.53140070067901,2.121720071400796,0.017704783729667637
9.520286,-0.102154,2.09019,0.002089,0.007798,0.008289,0.398518,-0.54276,-0.316381,-0.668205,-2.659797,-77.827427,-116.22881,2.06,3.1054888366121216,1.67760325555497,-9.100369807447091,0.012048417954067183,-0.006595472340066999,0.009935991787970765,3.529647800754509,2.09268480087566,0.016952538553122357
9.519061,-0.08392,2.106637,0.008025,0.010964,0.005697,0.398567,-0.5427,-0.316424,-0.668204,-2.644641,-77.823146,-116.234966,2.07,3.1042713879997743,1.6765423208420371,-9.105159381375126,0.011629347846606986,-0.006986092040537639,0.008596841712712938,3.528072420448374,2.1083078561180293,0.016060912202290598
9.495523,-0.104285,2.091655,0.005762,0.005084,0.006045,0.398601,-0.542665,-0.316467,-0.668192,-2.633744,-77.822008,-116.238564,2.08,3.103142878683897,1.6755100889382863,-9.109834543297897,0.011122493525678472,-0.0072410339176985136,0.007142440636701967,3.526588972883084,2.0942530888720206,0.015071724940259207
9.520426,-0.119166,2.110931,0.0011,5.3e-05,0.005957,0.398615,-0.542656,-0.316508,-0.668172,-2.624583,-77.823965,-116.242646,2.09,3.1019990926676826,1.6745365183482959,-9.114300001283947,0.010533456362698418,-0.00734266208895953,0.005632555167866959,3.5251199869214607,2.114291896195272,0.014021200633917914
9.546265,-0.140657,2.061229,0.002274,0.000109,0.007142,0.398631,-0.54265,-0.316542,-0.668151,-2.619405,-77.825745,-116.243265,2.1,3.1007526280693605,1.6736547179071761,-9.11846759951001,0.009866033652723084,-0.00727480450746112,0.004128694280021477,3.5236042591715653,2.0660225996077584,0.01293474070541513
9.543643,-0.088072,2.073504,-7.3e-05,-3e-06,0.004772,0.398637,-0.542641,-0.316582,-0.668135,-2.607777,-77.827764,-116.250559,2.11,3.099341038707144,1.6728996856431628,-9.122259151421884,0.009122567184815836,-0.007024022752289846,0.0026902696736369417,3.5220034401515385,2.0753735844902717,0.011823522257899918
9.543196,-0.085453,2.10787,-0.001319,-6.1e-05,0.008359,0.398654,-0.542639,-0.316608,-0.668115,-2.606913,-77.829402,-116.247554,2.12,3.0977325787176655,1.6723069300015752,-9.125608390072552,0.008304527017532,-0.006580885141236701,0.0013709742384307205,3.520306463559684,2.1096014201997972,0.010684230837524508
9.567556,-0.085087,2.10816,-0.001347,0.001862,0.007453,0.398668,-0.542631,-0.316633,-0.668101,-2.602903,-77.830284,-116.247801,2.13,3.0959290681252747,1.6719110164211959,-9.128462072507658,0.007413284444004021,-0.005941146638806927,0.0002156413701169778,3.518531404107911,2.109876390495187,0.009502658092977184
9.544125,-0.105814,2.092644,0.003371,0.003045,0.009354,0.398701,-0.542612,-0.316664,-0.668082,-2.600638,-77.830144,-116.244093,2.14,3.0939656552074335,1.671744069904206,-9.130780351684248,0.006451007806817761,-0.0051067386772217244,-0.0007422009291894817,3.516724571367943,2.095317520886035,0.008261061908758808
9.568447,-0.105488,2.093105,0.005768,0.002195,0.009791,0.398744,-0.542592,-0.316706,-0.668053,-2.598714,-77.830775,-116.238035,2.15,3.09190753334341,1.6718342522469165,-9.132536580073385,0.005421599940643925,-0.004086480686739731,-0.0014819301104929882,3.5149568932963793,2.0957614986369513,0.006949042176578927
9.543436,-0.09205,2.074283,0.003349,0.002081,0.012194,0.398785,-0.542582,-0.316729,-0.668026,-2.605075,-77.831173,-116.225624,2.16,3.089843942992633,1.672204231285745,-9.133716737473152,0.004331587961715334,-0.002896441547164145,-0.001996502252503198,3.5133178881476423,2.0763244367364653,0.005580147771382598
9.544504,-0.124078,2.112181,0.003372,0.003043,0.009355,0.398821,-0.542563,-0.316763,-0.668003,-2.603266,-77.831329,-116.220855,2.17,3.087880024312505,1.672869674738666,-9.134318682152529,0.0031908754481320056,-0.001559901210831481,-0.0022921887487693297,3.5119077426960477,2.115822281488925,0.004227186673548952
9.566223,-0.070441,2.125002,0.008162,0.004229,0.006483,0.398862,-0.542526,-0.316815,-0.667985,-2.590987,-77.830565,-116.224222,2.18,3.0861272616688997,1.6738378299471313,-9.13435140780418,0.002013273869522831,-0.00010688816114291189,-0.002387435174427732,3.510828186650281,2.1261691923468837,0.0031248269495750833
9.543797,-0.109712,2.093938,0.008217,0.000382,0.008296,0.398903,-0.542505,-0.316873,-0.667949,-2.583911,-77.832272,-116.222001,2.19,3.0846933653644033,1.6751062825721172,-9.133834448394127,0.0008167441894708004,0.0014267047450650396,-0.0023109620979581366,3.5101729610142782,2.096810213345023,0.0028360365510381714
9.543811,-0.110282,2.093846,0.008294,-0.002501,0.00727,0.398933,-0.542491,-0.316937,-0.667912,-2.573669,-77.83533,-116.223518,2.2,3.083672463034439,1.6766620107073604,-9.132797511761995,-0.0003766998779403124,0.0030003965448157617,-0.0020992777481011107,3.510018711834188,2.096748242216981,0.0036812021525386347
9.543372,-0.107537,2.128158,0.004646,0.001177,0.006674,0.398961,-0.542471,-0.316986,-0.667888,-2.564234,-77.836623,-116.225802,2.21,3.083136424718666,1.6784808592693796,-9.131280348143203,-0.0015414498671307802,0.004570731011349255,-0.0017938082293359782,3.510417098915836,2.130873219910795,0.005146396567951284
9.518848,-0.097088,2.074823,0.004624,0.000214,0.009514,0.398999,-0.542456,-0.31703,-0.667857,-2.562097,-77.837984,-116.220284,2.22,3.0831280291814265,1.68052755126821,-9.129332782747756,-0.002649116067171738,0.006093146369136794,-0.001437869930728951,3.5113887985946066,2.0770932961889312,0.006797920163606427
9.519432,-0.113327,2.0935,0.005924,-0.003574,0.00774,0.399026,-0.542452,-0.31709,-0.667816,-2.555322,-77.84197,-116.219098,2.23,3.083656507455838,1.6827563279606712,-9.127014774327863,-0.0036696613220848313,0.007524001110987589,-0.001073709766042382,3.512919913016296,2.0965651096326585,0.008439778409332951
9.49408,-0.096169,2.108638,0.008268,-0.00058,0.006364,0.399062,-0.542432,-0.317152,-0.667781,-2.545381,-77.844064,-116.21985,2.24,3.0846957895157527,1.6851122694266523,-9.124396314506065,-0.004572791952935021,0.008822638941208166,-0.0007398221811028825,3.5149610914529985,2.11082985851655,0.00996477400603756
9.495129,-0.115317,2.092862,0.003625,-0.004643,0.003436,0.399067,-0.542429,-0.317218,-0.66775,-2.528606,-77.848771,-116.230241,2.25,3.0861855502276447,1.6875332926044033,-9.121556961905823,-0.005329518555629953,0.009953366636798706,-0.00046871912200850517,3.517429439815697,2.0960365840158897,0.011300131550414712
9.494193,-0.096991,2.108092,0.002303,-0.001818,0.008051,0.399085,-0.542427,-0.317257,-0.667722,-2.524677,-77.851485,-116.228899,2.2600000000000002,3.0880349203883815,1.689952760052538,-9.118584813176025,-0.005913781546941157,0.010887218235334221,-0.00028528354789847637,3.5202130618397613,2.1103220452208236,0.012392970579785835
9.495289,-0.116552,2.092069,0.002433,-0.008547,0.008838,0.399098,-0.542448,-0.317312,-0.66767,-2.523398,-77.85829,-116.224138,2.27,3.090128516071916,1.6923025674983758,-9.115574748785601,-0.006304026515305458,0.01160338836792898,-0.00020578321166265313,3.5231778589509806,2.0953131196709003,0.013206881488559896
9.517749,-0.066404,2.069289,0.006006,-0.009346,0.010461,0.399126,-0.542466,-0.317374,-0.66761,-2.524877,-77.865209,-116.214626,2.2800000000000002,3.0923342617665863,1.6945165210765665,-9.112625851591298,-0.006484613795946519,0.01209023642203291,-0.00023756475651394348,3.526176034558815,2.070354186301706,0.013721533071663988
9.520025,-0.117085,2.090596,0.008377,-0.008276,0.009992,0.399159,-0.542477,-0.317445,-0.667548,-2.523239,-77.871829,-116.206748,2.29,3.0945123543258024,1.696533774899424,-9.109837976115578,-0.006446955400202089,0.012345790122825273,-0.00037939397641756383,3.5290556187809665,2.0938721385129995,0.013932900181885569
9.542591,-0.079023,2.121139,0.015517,-0.006988,0.009491,0.399212,-0.542466,-0.317537,-0.66748,-2.516149,-77.877416,-116.200475,2.3000000000000003,3.0965246450918538,1.6983020819278973,-9.107307541304362,-0.006190289602937433,0.012377710019704,-0.0006223608294627439,3.531670261949983,2.1226104899038822,0.013853328975454444
9.545257,-0.132571,2.108259,0.01082,-0.007204,0.00475,0.399237,-0.54246,-0.317628,-0.667428,-2.499013,-77.883554,-116.207019,2.31,3.0982437097246818,1.6997806174581607,-9.105122723645342,-0.005722027299868842,0.012202712860665403,-0.0009512310145076941,3.533888542715376,2.1124230355499343,0.013511204166293042
9.593669,-0.127419,2.142714,0.012992,0.000592,0.008265,0.399284,-0.542431,-0.317694,-0.667391,-2.489463,-77.884972,-116.205942,2.32,3.099560926599407,1.7009421631396382,-9.103358333225794,-0.005057632422810303,0.011845489199819566,-0.0013461023390854824,3.535602095831476,2.1464992167147416,0.012950183458723487
9.569726,-0.132538,2.108016,0.003508,-0.00369,0.010145,0.399312,-0.542436,-0.31774,-0.667349,-2.490486,-77.888965,-116.198197,2.33,3.100392989191417,1.701774487348698,-9.102070751561024,-0.004220029236058037,0.01133718577889829,-0.0017842153674998587,3.5367319792738345,2.112178443621656,0.01222799462774092
9.568752,-0.114715,2.123466,0.003358,0.002076,0.012196,0.399353,-0.542426,-0.317763,-0.667321,-2.496657,-77.88936,-116.185992,2.34,3.100686427976875,1.702280821513096,-9.101293382775127,-0.0032385608152919907,0.010713553213236577,-0.0022417738583335235,3.537232861988491,2.1265623396413753,0.011414641853299825
9.569107,-0.119307,2.089339,-0.000284,0.002871,0.015348,0.399399,-0.542425,-0.317768,-0.667292,-2.512972,-77.889466,-116.16483,2.35,3.1004199023727916,1.7024794064352091,-9.101033104236183,-0.0021475543183855743,0.010012881773097077,-0.0026956489153223888,3.537094810768478,2.092742606526182,0.010589443518292874
9.54473,-0.134084,2.142778,0.004411,0.005969,0.016342,0.399467,-0.542404,-0.317779,-0.667263,-2.529506,-77.887453,-116.140676,2.36,3.099604226650601,1.702402159689163,-9.101268186737713,-0.0009845783397153971,0.009273861068221225,-0.003124867154871404,3.5363426693668414,2.1469690441038036,0.00983558276643027
9.568396,-0.118904,2.124837,0.001988,0.008745,0.014997,0.399527,-0.542378,-0.317781,-0.667247,-2.542883,-77.884203,-116.121187,2.37,3.098280292534223,1.702092584711075,-9.101948080303961,0.00021149654768753815,0.00853350285330009,-0.003511812243529375,3.535033230117417,2.128161280961807,0.009230288563786474
9.543827,-0.121202,2.125385,0.002084,0.006825,0.01113,0.399569,-0.542351,-0.317796,-0.667237,-2.545295,-77.88181,-116.113336,2.38,3.0965152197086945,1.7016030952307932,-9.102995328813407,0.0014025038952415888,0.007825260444983401,-0.003843096438745145,3.5332505712992677,2.128838021792405,0.008830125052652724
9.542573,-0.091338,2.088437,0.000814,0.00869,0.013812,0.399621,-0.542326,-0.317797,-0.667226,-2.55618,-77.878621,-116.097083,2.39,3.094397182989122,1.7009919602010164,-9.10430969242627,0.0025529144720913906,0.007177464147433956,-0.004110082000128833,3.531100051649558,2.0904333840648928,0.008655988559217054
9.518511,-0.109328,2.107955,0.000767,0.009647,0.015746,0.399679,-0.542302,-0.317787,-0.667216,-2.572525,-77.8746,-116.076054,2.4,3.092029421542864,1.700320084424076,-9.105774338362915,0.00363155873599205,0.006612170302320396,-0.004309051563279692,3.5287015080880098,2.1107882161905773,0.008687746562535716
9.468025,-0.078376,2.105119,-0.006282,0.009333,0.008631,0.399696,-0.54228,-0.317778,-0.667227,-2.573582,-77.871175,-116.074011,2.41,3.0895239326417365,1.69964783214411,-9.107263733361943,0.004613015223235476,0.006144492703228835,-0.004441043128862669,3.5261821966084277,2.106577509026668,0.008874545853295985
9.494191,-0.115924,2.074938,-0.005008,0.004579,0.009699,0.399711,-0.542274,-0.317776,-0.667224,-2.577575,-77.870151,-116.068656,2.42,3.0869952986249456,1.6990320789956086,-9.10865266460745,0.005478566789628207,0.005782450097257549,-0.004511380491861887,3.5236699588906815,2.0781737361491217,0.009154451219928094
9.49515,-0.148065,2.112966,-0.003807,0.002707,0.011793,0.399735,-0.542274,-0.31778,-0.667208,-2.586429,-77.870437,-116.057188,2.43,3.0845550036897573,1.6985236449330146,-9.109825657305484,0.006216661124816723,0.005527324230941816,-0.004528944040733554,3.521287000967693,2.118147436176481,0.009471511115912816
9.494963,-0.124685,2.006573,0.012996,-0.002313,0.012021,0.399798,-0.542257,-0.317847,-0.667152,-2.586708,-77.873258,-116.044793,2.44,3.082306482579958,1.6981652197385493,-9.110685966407859,0.006822852454610943,0.0053744823852230564,-0.0045052391824066266,3.519144550325279,2.0104431236804485,0.009784352641700697
9.469202,-0.104002,2.056098,0.015509,-0.001232,0.002002,0.399835,-0.542217,-0.31795,-0.667114,-2.558883,-77.87605,-116.059521,2.45,3.080341025129865,1.697989846308265,-9.111163308576065,0.007299244202686683,0.0053145802760999105,-0.004453329027697204,3.517338532081334,2.0587266456739712,0.010067565190774574
9.493697,-0.115247,2.109408,-0.004792,-0.001178,0.002872,0.39982,-0.542217,-0.31798,-0.667108,-2.545266,-77.878494,-116.071873,2.46,3.0787345586240606,1.6980199778297156,-9.111219572545812,0.007653493955165536,0.005335029332010078,-0.004386703662808873,3.5159462919070474,2.1125539002527254,0.010309300496176454
9.567484,-0.14044,2.181984,-0.032258,-0.000483,0.003337,0.399734,-0.542272,-0.317918,-0.667145,-2.548268,-77.880823,-116.083064,2.47,3.077545259199221,1.698267075646181,-9.110851899544754,0.00789747902145358,0.005421590027024909,-0.004318160612873866,3.5150243075465966,2.186498929763287,0.010507631721468475
9.590163,-0.082454,2.07268,-0.039774,0.005892,0.019312,0.399692,-0.542343,-0.317775,-0.66718,-2.597107,-77.878721,-116.051629,2.48,3.0768119098941833,1.6987316696708294,-9.110092750619351,0.008045750003186426,0.005559942647311885,-0.0042587707231805634,3.5146067794860545,2.074319417186273,0.010666966927284988
9.564033,-0.039648,2.016777,-0.020862,0.011537,0.024085,0.399725,-0.542368,-0.317671,-0.66719,-2.647412,-77.873628,-116.007759,2.49,3.0765529232437814,1.6994037722388198,-9.109006856070001,0.008113917646021073,0.005737090006562212,-0.004217000154847509,3.514704976327229,2.017166684147098,0.010795042918663737
9.541429,-0.09297,2.039508,-0.020647,0.00578,0.017257,0.399722,-0.542401,-0.317593,-0.667202,-2.679214,-77.871702,-115.983453,2.5,3.0767659723494765,1.7002635315496177,-9.107685248154613,0.008117121553214476,0.005942463684217133,-0.004198049642065895,3.515307230573908,2.0416258969174548,0.010900649418504754
9.566751,-0.124823,2.077664,-0.026423,0.000718,0.011207,0.399679,-0.542452,-0.317527,-0.667217,-2.699716,-77.873137,-115.973325,2.5100000000000002,3.0774282146380356,1.7012820382527196,-9.106236882587941,0.00806871622007911,0.006168636179296742,-0.004203452966464516,3.516379528710116,2.0814102138273944,0.010992054884960125
9.493528,-0.141977,2.130616,-0.025413,0.008449,0.013544,0.399652,-0.542486,-0.317432,-0.667251,-2.727089,-77.870048,-115.957299,2.52,3.0784971307163023,1.702422249188651,-9.104778625035552,0.007979281333851427,0.006411584709783525,-0.0042309473720428875,3.517866697070975,2.1353411924057943,0.01107602206392152
9.541565,-0.113774,2.059779,-0.019422,0.007755,0.012766,0.399645,-0.542502,-0.317371,-0.667271,-2.746839,-77.867411,-115.943839,2.5300000000000002,3.0799120190647855,1.7036400439610075,-9.103424580145038,0.00785602363602581,0.0066705045518415836,-0.004274594748313611,3.5196942260041837,2.0629188185474,0.01115728007214329
9.517046,-0.116284,2.060071,-0.010965,0.003328,0.011394,0.399648,-0.542511,-0.317351,-0.667271,-2.756532,-77.866893,-115.935691,2.54,3.081596176876868,1.7048854613575735,-9.102275837110968,0.007702593148526985,0.006947223775283692,-0.004325103106854636,3.5217707809695047,2.063350308041996,0.011238344018605476
9.542412,-0.147234,2.097946,-0.013104,-0.002519,0.002188,0.399607,-0.542532,-0.317361,-0.667275,-2.745808,-77.870426,-115.949696,2.5500000000000003,3.083459764370662,1.7061041646833817,-9.101411671975596,0.007519293575868963,0.007245317877270368,-0.004370281473904442,3.523991421562027,2.1031061004314546,0.011319618685448295
9.565403,-0.112425,2.094696,-0.01315,-0.001565,0.004123,0.399574,-0.542549,-0.317364,-0.66728,-2.737945,-77.872855,-115.960551,2.56,3.0854033090071273,1.707239162544881,-9.100883079173078,0.007303630193735563,0.007569054009453437,-0.004395561555395583,3.5262415029828964,2.0977108268398195,0.01139976113750374
9.563968,-0.091123,2.144791,-0.010918,0.005263,0.005714,0.399562,-0.542545,-0.317355,-0.667293,-2.734361,-77.871837,-115.965974,2.57,3.0873217678288922,1.708232775355266,-9.100709226481312,0.007051111758974744,0.007922305688551717,-0.00438453509908252,3.528401183667763,2.1467258406256726,0.011476290885800053
9.589614,-0.112795,2.095661,-0.012116,0.007137,0.003622,0.399539,-0.542535,-0.31734,-0.667322,-2.725287,-77.869529,-115.978538,2.58,3.08910903225435,1.7090287981316301,-9.100877083993757,0.006756207638188739,0.00830756974832753,-0.00431948180480619,3.5303504140522155,2.0986942938279505,0.011546427145905279
9.587999,-0.078828,2.093224,-0.013291,0.00998,-0.00131,0.399505,-0.54251,-0.317333,-0.667367,-2.70377,-77.866002,-116.003693,2.59,3.0906627273664324,1.7095747758499178,-9.101344124381782,0.006413357675983368,0.008725191004376364,-0.004181891827768819,3.5319742366776135,2.0947077523511486,0.011608115006412739
9.538992,-0.081069,2.093797,-0.01808,0.011687,-0.002183,0.399453,-0.542488,-0.317305,-0.667429,-2.681944,-77.861243,-116.032842,2.6,3.091889125319431,1.7098242866205877,-9.102043680096353,0.00601793886472327,0.009172862447517225,-0.00395301174856894,3.5331681893714255,2.0953658534895525,0.011661187570095191
9.538717,-0.081054,2.09505,-0.012139,0.014846,-0.004774,0.399418,-0.542438,-0.317302,-0.667492,-2.649984,-77.855018,-116.068005,2.61,3.0927079605051455,1.7097391247792186,-9.10289231030873,0.005567106700958118,0.009645427093335822,-0.003614456939192229,3.5338435737554517,2.096617335952367,0.011708596833010535
9.563326,-0.095419,2.115305,-0.013265,0.010946,-0.004149,0.399378,-0.542406,-0.317297,-0.667545,-2.622828,-77.850801,-116.099158,2.62,3.0930569044374003,1.7092912882832736,-9.103798393680155,0.0050604466567720375,0.010134969100131345,-0.003148932829302496,3.533932331311533,2.117456027544846,0.011757614425984187
9.514774,-0.100777,2.081544,-0.010964,0.011998,0.00016,0.399359,-0.542371,-0.31729,-0.667588,-2.603711,-77.84607,-116.120497,2.63,3.092895434170921,1.7084646938693964,-9.1046711203411,0.004500389453385912,0.010631151709176143,-0.0025410923088757032,3.5333912572645527,2.0839821082881205,0.011820830851420439
9.514504,-0.100699,2.082779,-0.006149,0.014155,-0.005552,0.399338,-0.542309,-0.317309,-0.667641,-2.566547,-77.839908,-116.157377,2.64,3.09220781528976,1.7072565595136162,-9.105429091370702,0.003892361246017984,0.01112174047287402,-0.001778529215284818,3.532205278992338,2.085211896053252,0.01191665865018749
9.489881,-0.101699,2.083602,-0.006151,0.008365,0.001939,0.399332,-0.54228,-0.31732,-0.667663,-2.549866,-77.837207,-116.173403,2.65,3.091004927841957,1.7056784012240611,-9.106007824611389,0.0032446565021756577,0.011593242213241726,-0.0008528738602345562,3.530389535496831,2.0860824482759543,0.012068904451252901
9.516495,-0.15372,2.072282,-0.00366,0.008499,-0.005241,0.399308,-0.542232,-0.317357,-0.667699,-2.512572,-77.834273,-116.209287,2.66,3.089324700327216,1.7037565896908167,-9.106365592093603,0.0025680384354373528,0.012031591761435872,0.00023907748424515784,3.527990025633112,2.077975583572627,0.0123049250206252
9.540231,-0.136822,2.054568,-0.008473,0.009234,-0.003274,0.39928,-0.542197,-0.317373,-0.667737,-2.483302,-77.831202,-116.239553,2.67,3.08723098817002,1.7015324048087035,-9.106487162552167,0.0018750904886869573,0.012422827531200656,0.0014942947336345463,3.5250826513617137,2.059118725646484,0.012652095674697106
9.53907,-0.130433,2.12418,-0.010892,0.009116,-0.00087,0.399254,-0.542169,-0.317373,-0.667775,-2.462354,-77.827833,-116.262733,2.68,3.084810836982047,1.6990615171690626,-9.10638518350333,0.0011793626562059344,0.012753710711583746,0.0029026192464402523,3.5217705687745635,2.1281807817685507,0.013132906444478483
9.538912,-0.118422,2.071771,-0.012114,0.007123,0.003624,0.399235,-0.542158,-0.317362,-0.6678,-2.453742,-77.825795,-116.274002,2.69,3.082170198581986,1.6964128208459852,-9.106099106103736,0.0004943769961971773,0.013012258487027606,0.004446155212960442,3.518179869159272,2.0751527284816893,0.013759781092928995
9.538788,-0.119058,2.072305,-0.009697,0.004346,0.004965,0.399224,-0.542153,-0.317359,-0.667812,-2.448113,-77.825013,-116.280949,2.7,3.079428306261238,1.693666547581984,-9.105691730268802,-0.00016742519835925756,0.013188176582174242,0.006099047467825319,3.51445373675643,2.0757222406644393,0.014531153181163605
9.538195,-0.104067,2.054047,-0.013286,0.007071,0.002438,0.399198,-0.542144,-0.317348,-0.667841,-2.437037,-77.823033,-116.295424,2.71,3.0767110494823955,1.6909116156489592,-9.10524362482774,-0.000795699731902427,0.0132731887173648,0.007827721387774787,3.5107453587441566,2.0566815550050523,0.015429967560392234
9.513223,-0.077622,1.982462,-0.010892,0.006218,0.002876,0.399171,-0.542138,-0.317335,-0.667867,-2.427865,-77.821484,-116.308202,2.72,3.074143799049173,1.6882422125866217,-9.104845850766324,-0.001383080730976492,0.013261269480267079,0.009591627735508822,3.5072099831050685,1.9839810372904272,0.016424783199581162
9.559786,-0.075806,2.174525,-0.020536,0.012502,0.002162,0.399133,-0.542124,-0.31729,-0.667923,-2.419612,-77.816402,-116.324041,2.73,3.0718442031716973,1.685753679712585,-9.10459157065619,-0.0019258345133276668,0.013148792796414973,0.011344498178338948,3.5039966148990613,2.1758459332546964,0.017472756780030848
9.535109,-0.065172,2.122519,-0.018281,0.017399,0.004667,0.399119,-0.542096,-0.31723,-0.667983,-2.418831,-77.808317,-116.331338,2.74,3.069915487783192,1.6835378496617002,-9.104567244849981,-0.0024242103580313194,0.012934611035300119,0.013036078919358087,3.5012398937197453,2.1235193182415366,0.0185235070136901
9.536673,-0.10351,2.092984,-0.012342,0.017666,0.005825,0.399124,-0.542054,-0.317192,-0.668032,-2.41503,-77.80019,-116.337819,2.75,3.0684407450575115,1.6816780727474927,-9.10484417594745,-0.002882437956268194,0.012620080100064289,0.014614272896498083,3.499052692699671,2.0955420168433747,0.019523110474437538
9.514902,-0.149174,1.994329,0.000776,0.015379,0.008294,0.399164,-0.541999,-0.31719,-0.668054,-2.410299,-77.793068,-116.338502,2.7600000000000002,3.06747858973569,1.680244241657949,-9.10547115449108,-0.003308354009897442,0.012209043868971724,0.016027587498187675,3.497519922761206,1.9999002581421406,0.0204178725498359
9.514118,-0.158959,2.082774,0.014151,0.003514,0.005724,0.399217,-0.541951,-0.317268,-0.668023,-2.392638,-77.793044,-116.343633,2.77,3.0670604239926247,1.6792881797291976,-9.10646887722046,-0.003712677653415328,0.011707787670716494,0.017227756755767848,3.496693929270908,2.0888311321782336,0.021157785099973375
9.512441,-0.149682,2.186413,0.003405,0.006872,0.002789,0.399235,-0.541908,-0.31731,-0.668028,-2.372316,-77.790836,-116.358124,2.7800000000000002,3.06718940502559,1.6788397883664137,-9.107826660214371,-0.0041079922673556025,0.011124966040664794,0.018172386048839664,3.496591752164301,2.1915306312468004,0.02169967936589527
9.464012,-0.155591,2.152184,-0.013404,0.007997,0.009152,0.399233,-0.541906,-0.317279,-0.668046,-2.379019,-77.788163,-116.35448,2.79,3.067841079194401,1.678904340579739,-9.10950176597266,-0.004507524657725781,0.010471505670507423,0.01882745414249957,3.4971944000884703,2.157800854837397,0.022010071309184788
9.511739,-0.123167,2.115836,-0.010889,0.006213,0.002876,0.399222,-0.54189,-0.317279,-0.668065,-2.368515,-77.786249,-116.365929,2.8000000000000003,3.0689655472441304,1.6794612458883678,-9.111421424471592,-0.004923835806557976,0.009760480433381874,0.01916950206314221,3.498448171205681,2.119417865543508,0.022067644792527957
9.512042,-0.126889,2.082439,-0.013441,0.014737,0.003605,0.399211,-0.541857,-0.317248,-0.668113,-2.359839,-77.779849,-116.378043,2.81,3.0704909620273875,1.6804644967063391,-9.113487376236673,-0.005367546109367256,0.009006951272417102,0.019187342093265176,3.5002679429698462,2.0863012742751224,0.021865265126768195
9.535723,-0.123578,2.117858,-0.008527,0.00149,0.009896,0.3992,-0.541877,-0.317229,-0.668112,-2.367891,-77.780934,-116.372969,2.82,3.0723281293687577,1.6818448576125185,-9.115582526462388,-0.005846211139542622,0.008227759407107533,0.01888313618410755,3.5025422566456217,2.121460353211438,0.021411376454980903
9.534239,-0.0904,2.114957,-0.008595,0.004364,0.010931,0.39921,-0.541881,-0.317216,-0.66811,-2.376938,-77.7803,-116.364108,2.83,3.074375971757861,1.6835137053935043,-9.117579100702729,-0.00636344422547034,0.007441257475786789,0.018272725317212385,3.505139941852516,2.1168881103754633,0.020730610838803547
9.510212,-0.108386,2.133713,-0.009773,0.001417,0.013486,0.399222,-0.541898,-0.317197,-0.668097,-2.3934,-77.780944,-116.348367,2.84,3.076527605535014,1.6853682905338403,-9.119347560830654,-0.006918354489510615,0.0066669614749530716,0.017385141430736138,3.5079179554767195,2.1364640627366054,0.0198634122626939
9.533693,-0.077698,2.096567,-0.014536,0.001196,0.013515,0.399221,-0.541928,-0.317163,-0.66809,-2.413034,-77.782059,-116.332156,2.85,3.0786767601557137,1.6872980783174596,-9.120765494272264,-0.0075053383554720115,0.005925108342091164,0.016261298151080957,3.510730037843507,2.0980062356182354,0.018864432942815604
9.557053,-0.059253,2.112714,-0.010938,0.004262,0.008558,0.399218,-0.541931,-0.317148,-0.668097,-2.417081,-77.781201,-116.329784,2.86,3.080724229148662,1.6891917426740568,-9.12172573601784,-0.008114232050710294,0.005236110712589684,0.014951927648827383,3.513435714451288,2.113544739011928,0.017799375202041206
9.533597,-0.080135,2.096912,-0.003719,-0.002143,0.011673,0.399234,-0.541947,-0.317162,-0.668067,-2.426024,-77.784271,-116.318172,2.87,3.0825839955290055,1.6909443324968176,-9.122143110573658,-0.008730803890515941,0.004619911577949071,0.013514898309476095,3.5159091036451264,2.0984426496735624,0.01673986248086274
9.558383,-0.095659,2.11608,-0.003754,0.004603,0.006127,0.399245,-0.541928,-0.317179,-0.668068,-2.41859,-77.783183,-116.322925,2.88,3.08418863630329,1.6924641135207468,-9.121959364772449,-0.00933753933622923,0.004095255877158447,0.01201210241559318,3.5180469467956104,2.1182410652900203,0.015755994605156746
9.558215,-0.108517,2.169487,-0.00122,0.000901,0.000751,0.399236,-0.541912,-0.317225,-0.668065,-2.396879,-77.784775,-116.341212,2.89,3.0854935985286374,1.6936786109646234,-9.121146071262357,-0.00991465067467978,0.00367891106129996,0.010506138254542283,3.519775274616301,2.17219929621064,0.014906831508454108
9.583099,-0.110878,2.135566,-0.002487,0.002752,0.003439,0.399241,-0.541893,-0.317256,-0.668062,-2.383151,-77.784856,-116.351534,2.9,3.086479966840933,1.6945394359317154,-9.119705487495052,-0.010441228710950058,0.0033848815045062135,0.009057023590516414,3.5210541724941105,2.1384424404785833,0.014230472800054357
9.533253,-0.094691,2.151032,-0.008538,0.006307,0.005254,0.399236,-0.541881,-0.317255,-0.668076,-2.376943,-77.783244,-116.358248,2.91,3.0871554183168617,1.6950255656177475,-9.117669532824127,-0.01089644765704336,0.0032236696695307665,0.0077191666663469685,3.521880214450929,2.153115196756783,0.013737181359499499
9.532662,-0.079961,2.132976,-0.01696,0.008788,0.007535,0.399225,-0.541876,-0.317217,-0.668105,-2.380458,-77.779683,-116.35914,2.92,3.087553187673999,1.6951448565705496,-9.115097180482008,-0.011260736922756769,0.003201638510311367,0.006538789029433872,3.5222862989077792,2.1344742626925726,0.013409341787190419
9.508191,-0.069651,2.080396,-0.022942,0.009467,0.008315,0.399196,-0.541886,-0.317153,-0.668144,-2.390248,-77.776188,-116.357931,2.93,3.0877290372201136,1.6949336946175526,-9.112070642778722,-0.01151684407484553,0.0033205244986040656,0.005551946555143866,3.522338830442375,2.081561620182549,0.013209378900664035
9.507059,-0.052274,2.096762,-0.025292,0.006467,0.009683,0.399162,-0.541911,-0.317083,-0.668177,-2.404927,-77.774002,-116.352967,2.94,3.0877564217885674,1.6944548164692945,-9.108690755244066,-0.011650730112565014,0.003577140291764987,0.004783238428128905,3.522132428707434,2.0974135156711466,0.0130925480592254
9.457741,-0.039918,2.077928,-0.025196,0.004567,0.005808,0.399111,-0.541939,-0.317027,-0.668211,-2.409921,-77.773372,-116.357986,2.95,3.087720227747212,1.6937934655534677,-9.105071943101326,-0.011652258967305125,0.003963292993072755,0.004245236825371214,3.5217825754567706,2.078311386656966,0.01301940344614799
9.505484,-0.020114,2.094506,-0.017993,0.002985,0.004278,0.39907,-0.541956,-0.316999,-0.668235,-2.407732,-77.773467,-116.366784,2.96,3.0877096120906824,1.6930521554402478,-9.101337090884641,-0.011515664925351166,0.004465930901469497,0.0039386199187609735,3.5214167957851936,2.0946025773477888,0.01296409674270151
9.481916,-0.05298,2.131702,-0.020203,-0.002857,-0.000172,0.399001,-0.541989,-0.316991,-0.668253,-2.394889,-77.777231,-116.387126,2.97,3.087810545386642,1.6923443967462315,-9.097612547205745,-0.011239801550876618,0.005067520212526593,0.0038529520527926294,3.521165080111882,2.132360264402805,0.012917358070773332
9.50639,-0.052208,2.131628,-0.020107,-0.004755,-0.004048,0.398913,-0.542021,-0.316996,-0.668278,-2.371193,-77.781844,-116.418987,2.98,3.088098660281153,1.6917877917714201,-9.09402339921767,-0.01082819095202248,0.005746643208363243,0.003968028240366325,3.5211502762615896,2.13226724536302,0.012884831220238532
9.508412,-0.089687,2.099875,-0.020106,-0.004757,-0.004048,0.398828,-0.542054,-0.317003,-0.668298,-2.348225,-77.786784,-116.449631,2.99,3.088632934017589,1.691496917362263,-9.090689064017315,-0.01028890094512785,0.006478799617627021,0.004255682816199517,3.521479124252214,2.1017894218008615,0.0128820481048672
9.532501,-0.073122,2.080911,-0.022476,-0.005833,-0.003582,0.398733,-0.5421,-0.316996,-0.668322,-2.329752,-77.792201,-116.478153,3.0,3.089450613222841,1.691576408546045,-9.087719183875981,-0.00963427920940513,0.007237381361120719,0.004681950046370443,3.5222344949609083,2.0821953358907037,0.012927477754294599
9.508673,-0.089901,2.098683,-0.023626,-0.007809,-0.003867,0.398634,-0.54215,-0.316997,-0.668339,-2.309561,-77.798879,-116.508018,3.0100000000000002,3.090563653266782,1.692114631585917,-9.085209790137394,-0.008880568878417235,0.00799477712508307,0.005209454366657727,3.523469259312597,2.1006076559629117,0.013035312795723527
9.510746,-0.127536,2.066648,-0.023672,-0.006865,-0.001927,0.398541,-0.5422,-0.316987,-0.668358,-2.294116,-77.804656,-116.53354,3.02,3.0919568201394503,1.6931782982627603,-9.083239719920519,-0.008047421599635661,0.008723548177648846,0.005799898722265369,3.5252020831882587,2.0705794810149163,0.013209849067971161
9.559664,-0.1256,2.066603,-0.020054,-0.005713,-0.005982,0.398448,-0.542233,-0.317002,-0.66838,-2.266003,-77.810178,-116.569414,3.0300000000000002,3.0935875048417616,1.6948083200449602,-9.08186732397354,-0.007157315088585185,0.009397603378454465,0.006416512678255737,3.527415327375938,2.070416218930146,0.013442981197868445
9.509541,-0.105985,2.115375,-0.017716,-0.008522,0.000131,0.398382,-0.542276,-0.317015,-0.668379,-2.252084,-77.816713,-116.588715,3.04,3.0953872290057993,1.6970171260602847,-9.081127578256686,-0.006234875662851628,0.00999329315475679,0.007026320400201267,3.5300551303958567,2.1180283781975158,0.013715274732006389
9.583359,-0.106261,2.081335,-0.020167,-0.001898,-0.003,0.398305,-0.542301,-0.317014,-0.668405,-2.231498,-77.819978,-116.616955,3.0500000000000003,3.09726476639322,1.6997875715443673,-9.081029785959773,-0.0053061043214203876,0.010490342612759626,0.007602094975760984,3.53303365700322,2.0840457726129724,0.01399978139912788
9.582932,-0.090816,2.062611,-0.01552,0.002145,-5.1e-05,0.398259,-0.542307,-0.317009,-0.668429,-2.216826,-77.820605,-116.636467,3.06,3.0991107561809272,1.7030734508637728,-9.081556110451434,-0.004397508516607888,0.010872554549878245,0.008123881260534429,3.5362333998356723,2.0646093294318417,0.014267023877774211
9.58195,-0.072482,2.078386,-0.015499,0.000218,0.000848,0.39821,-0.542322,-0.317009,-0.668446,-2.203542,-77.822571,-116.654499,3.0700000000000003,3.1008036310568783,1.7068015157637766,-9.082661198255746,-0.003535150474384025,0.011128233405588482,0.008579994139188172,3.5395133242564643,2.079649490976785,0.01448969175083778
9.608111,-0.121919,2.100582,-0.010806,0.003316,0.001857,0.398184,-0.542319,-0.317012,-0.668463,-2.190734,-77.82246,-116.669421,3.08,3.1022166205338353,1.7108748025127265,-9.084273128398076,-0.002743635419179936,0.011250308715998733,0.008967431030318943,3.5427165495688944,2.1041171500857554,0.01464622138307976
9.558306,-0.105688,2.11595,-0.007244,0.002514,0.003478,0.398171,-0.542314,-0.317028,-0.668468,-2.17946,-77.823052,-116.680558,3.09,3.1032255163610984,1.7151770049212716,-9.086295862640894,-0.0020450774277704403,0.011236167779595255,0.009291674127682501,3.5456791681714956,2.118587821130859,0.014723077672546426
9.582599,-0.105172,2.116664,-0.004942,0.006462,0.004054,0.398174,-0.542289,-0.317041,-0.66848,-2.167399,-77.820975,-116.690924,3.1,3.103716807096532,1.7195775992813214,-9.088613277696966,-0.0014580945917384526,0.011087237816671957,0.009565896538280539,3.5482397239481447,2.1192752625555746,0.014715952528565225
9.557459,-0.103581,2.151695,-0.006221,0.013135,0.002111,0.398175,-0.542244,-0.317042,-0.668515,-2.150855,-77.815515,-116.706853,3.11,3.1035957145843667,1.7239374291448673,-9.091094743813006,-0.0009968961663445474,0.010808383756083296,0.009809624416665502,3.550248810885381,2.154186713492124,0.014630232143793128
9.557787,-0.107098,2.118224,-0.00853,0.006282,0.005272,0.398174,-0.542229,-0.317041,-0.668528,-2.145244,-77.81356,-116.712633,3.12,3.1027936136411256,1.728114484656875,-9.093602081095845,-0.0006705299116275308,0.010407205333482543,0.010046941778615,3.5515782239636864,2.12092972438504,0.01448104182434863
9.531824,-0.074342,2.115757,-0.013349,0.01183,0.002609,0.398156,-0.542204,-0.317019,-0.66857,-2.13425,-77.808835,-116.727062,3.13,3.1012743048473963,1.7319696533476263,-9.09599758253064,-0.00048235605818081154,0.009893324007643013,0.010304353624940555,3.5521291071727386,2.1170626858959563,0.01429301336020137
9.508099,-0.094744,2.10107,-0.012291,0.015692,0.006778,0.398164,-0.542167,-0.316983,-0.668612,-2.133359,-77.801437,-116.730133,3.14,3.0990386489087927,1.7353722670772507,-9.098152651224803,-0.0004298047385067918,0.009277745427019403,0.010608444736961868,3.551838601734498,2.103205070941966,0.01409965928875575
9.531222,-0.075961,2.118412,-0.011052,0.012868,0.006924,0.398169,-0.54214,-0.316956,-0.668644,-2.132391,-77.796025,-116.73296,3.15,3.0961271585918606,1.7382053133809503,-9.099956474741356,-0.0005044571933705184,0.008572367579902856,0.0109834853738074,3.5506845950655594,2.119773449042374,0.013941912133619042
9.531388,-0.092673,2.13815,-0.009841,0.009064,0.009907,0.398185,-0.542126,-0.316932,-0.668657,-2.140109,-77.792397,-116.725675,3.16,3.092620270140202,1.7403702096197338,-9.101324070653025,-0.0006924693864666857,0.0077896805583888154,0.011449141201258074,3.548688293132251,2.1401574024891254,0.01386511706763702
9.554733,-0.061226,2.102107,-0.007462,0.013045,0.005708,0.398196,-0.54209,-0.316919,-0.668686,-2.133849,-77.78691,-116.731811,3.17,3.0886361648773266,1.7417910487157908,-9.102203003083151,-0.0009753319655006729,0.006942674399064217,0.012018443276741056,3.5459144682824166,2.102998445678218,0.013913841275887524
9.505683,-0.063963,2.102668,-0.009831,0.011967,0.006172,0.398212,-0.542055,-0.316906,-0.66871,-2.131146,-77.78153,-116.733892,3.18,3.0843261687970296,1.7424182152378282,-9.102578103918916,-0.0013309348562888994,0.006044940717530536,0.012696164363215136,3.542469357992916,2.1036406498242517,0.014124633991998424
9.529646,-0.076293,2.157211,-0.008584,0.012051,0.002581,0.398207,-0.54202,-0.3169,-0.668745,-2.117373,-77.776678,-116.748373,3.19,3.0798679130351196,1.7422312468310448,-9.10247364166596,-0.0017348800050209301,0.005110925772777799,0.013477729139996964,3.538496301987295,2.158559686543321,0.014518283426693014
9.529476,-0.076802,2.157941,-0.008461,0.003405,0.004231,0.398193,-0.542016,-0.316903,-0.668755,-2.109214,-77.776507,-116.757601,3.2,3.075456584500595,1.7412407903678955,-9.101952563609775,-0.0021619636211936137,0.00415627036836154,0.014348756983689674,3.534169307374659,2.159307274726087,0.015094220650675144
9.554552,-0.066506,2.071065,-0.003654,0.002689,0.00226,0.398185,-0.542001,-0.316933,-0.668757,-2.092687,-77.777021,-116.77201,3.21,3.071294727458006,1.73948948772955,-9.101112679584396,-0.002587731631819537,0.003198157660253861,0.015285296986376078,3.5296848274078183,2.072132544568759,0.01582924102349438
9.455969,-0.051666,2.085717,0.005987,0.002238,-0.004519,0.398169,-0.541964,-0.317004,-0.668763,-2.053247,-77.77785,-116.806251,3.22,3.0675811664055903,1.737051633310067,-9.100079932876726,-0.002990001007078016,0.0022555844150916565,0.016254767636315674,3.525252131305143,2.0863568198285254,0.016680684577874715
9.504526,-0.06164,2.139675,-0.008185,0.002573,-0.012046,0.398102,-0.541936,-0.317058,-0.668801,-2.001504,-77.778716,-116.859349,3.23,3.0644997007569708,1.7340314798384293,-9.098999182562888,-0.003350236811003359,0.0013494745732950402,0.017217561694985825,3.5210827296458422,2.1405626819191723,0.017592316477212856
9.552108,-0.053085,2.209344,-0.026096,0.002649,-0.008797,0.397999,-0.541947,-0.317043,-0.668861,-1.968957,-77.779135,-116.903181,3.24,3.0622082648959803,1.7305601299885212,-9.098023167994569,-0.0036546809283787875,0.0005025654588902203,0.01812922483188386,3.5173793968099516,2.2099816577431137,0.01850075830158644
9.602039,-0.044733,2.088958,-0.041977,0.015232,0.002944,0.397909,-0.541967,-0.316918,-0.668956,-1.975048,-77.772446,-116.916914,3.25,3.0608292450074797,1.7267910313593478,-9.097300511093302,-0.003895143194000007,-0.0002609845538604149,0.018943069331317907,3.5143253880476317,2.0894369019075447,0.01934115118420399
9.550997,0.030326,1.996305,-0.03615,0.01448,0.011721,0.397864,-0.541993,-0.316787,-0.669024,-2.002338,-77.765796,-116.905887,3.2600000000000002,3.060441591043,1.722894182961445,-9.096963715021321,-0.004069388578610354,-0.0009162941453965521,0.019613046584590864,3.5120744721415282,1.996535328838686,0.020051711016617603
9.528568,-0.03811,2.037098,-0.027566,0.002433,0.009133,0.397815,-0.542038,-0.316719,-0.66905,-2.017695,-77.766313,-116.901692,3.27,3.0610752595091153,1.7190492561734014,-9.097118130744132,-0.004181084546673165,-0.0014387619946282454,0.020096679351942915,3.5107423843866874,2.037454449479546,0.02057736681498448
9.528827,-0.096231,2.181038,-0.025155,0.007399,0.002101,0.397753,-0.542049,-0.316665,-0.669102,-2.012007,-77.763812,-116.918099,3.2800000000000002,3.0627083783435975,1.7154379262621249,-9.097832792520462,-0.004239309318336603,-0.0018053419408959966,0.02035785162928839,3.510400246358607,2.1831599031690283,0.020872784337031165
9.504375,-0.085261,2.128779,-0.022982,0.017076,0.004778,0.397725,-0.542029,-0.316595,-0.669169,-2.011882,-77.756031,-116.927057,3.29,3.065267348553693,1.712235790173154,-9.099133885084244,-0.004257661397498204,-0.0019960230453950536,0.02036927215067032,3.511070395087412,2.1304857354514253,0.02090500027556967
9.504098,-0.086141,2.129979,-0.020443,0.008567,0.004015,0.397681,-0.542032,-0.316548,-0.669215,-2.008683,-77.752897,-116.938644,3.3000000000000003,3.068629899035718,1.7096042961170541,-9.101001413444852,-0.004253048206466537,-0.0019954114998437596,0.02011446357721379,3.5127249118822053,2.1317201533789563,0.020655791708363472
9.504957,-0.105352,2.114734,-0.015505,0.002122,-5e-05,0.397633,-0.542039,-0.316546,-0.669239,-1.992928,-77.753776,-116.959213,3.31,3.0726309086112114,1.7076831206059742,-9.103369408093892,-0.004244261069845856,-0.0017942793842859214,0.019589174770298486,3.5152869500163875,2.117356591285464,0.02012384055589741
9.578097,-0.102381,2.115917,-0.009453,0.001503,-0.005613,0.397582,-0.542029,-0.316575,-0.669263,-1.960787,-77.754934,-116.993456,3.3200000000000003,3.077070629386209,1.706583403269113,-9.106129719660412,-0.004250460609393419,-0.0013909241429557189,0.018802158167625836,3.5186347594691934,2.118392461289928,0.019326723393371187
9.552334,-0.068652,2.112753,-0.007066,0.000656,-0.005181,0.397537,-0.542016,-0.316618,-0.66928,-1.926782,-77.756748,-117.027753,3.33,3.0817248131541035,1.706382202089476,-9.109139152504152,-0.0042896991791619155,-0.000792178987204991,0.01777529075451285,3.5226081308623334,2.1138680980877216,0.018302732801495563
9.502991,-0.067291,2.14631,-0.003395,-0.00395,-0.00655,0.397495,-0.542007,-0.316687,-0.669281,-1.888225,-77.760878,-117.064118,3.34,3.086356167290387,1.70711847181361,-9.112229386009155,-0.004377596169523637,-1.3932031821682159e-05,0.01654304290826887,3.5270168511333546,2.147364592886127,0.017112446084349357
9.503608,-0.069372,2.111853,-0.003419,0.00281,-0.012071,0.39744,-0.541968,-0.316756,-0.669311,-1.833728,-77.761576,-117.117243,3.35,3.090726539418507,1.7087907982982224,-9.115218875575374,-0.004526260181821111,0.0009189493432302067,0.015151316401447611,3.5316506811708566,2.1129920889565583,0.015839630293215116
9.501845,-0.018179,2.0904,-0.008109,-0.000291,-0.013087,0.397364,-0.541952,-0.316812,-0.669343,-1.782267,-77.763966,-117.170749,3.36,3.094609232213206,1.7113570400069362,-9.117925750862018,-0.004743522424625005,0.0019733366810153244,0.013655685489824543,3.5362903187493684,2.090479044630919,0.0145901613715053
9.527244,-0.034818,2.074892,-0.000995,-0.001888,-0.009849,0.397316,-0.541928,-0.316893,-0.669353,-1.732606,-77.767295,-117.217503,3.37,3.097800863175173,1.71473593591012,-9.120180659698716,-0.005032512204405958,0.003109183432204696,0.012119088177933808,3.5407187854714475,2.0751841134675257,0.01348575170196775
9.55185,-0.061542,2.146766,0.000175,-0.00184,-0.008662,0.397274,-0.541904,-0.316971,-0.66936,-1.686429,-77.77036,-117.260523,3.38,3.1001321985833825,1.7188106414587117,-9.12183854332118,-0.0053915725922780685,0.004281408855396671,0.010609032405166795,3.5447326655031612,2.147647940543328,0.012647176972698381
9.551507,-0.045196,2.127933,9.7e-05,-0.001883,-0.003884,0.397249,-0.541888,-0.317039,-0.669356,-1.65186,-77.773571,-117.291195,3.39,3.101477405283867,1.7234340563314372,-9.122788456087973,-0.00581448646465972,0.005442181584071507,0.009194406122211304,3.548152623832489,2.128412913629543,0.012163991827598161
9.552924,-0.079155,2.130661,-0.001073,-0.001931,-0.00507,0.397217,-0.54187,-0.317106,-0.669358,-1.614476,-77.776478,-117.325489,3.4,3.1017611873892807,1.7284357129332948,-9.122960738183894,-0.0062909630080243695,0.006543420783259716,0.007942010639914827,3.5508326456392996,2.132130814688911,0.012061015882571689
9.552938,-0.078744,2.130613,-0.00114,0.000936,-0.004023,0.397192,-0.541846,-0.317165,-0.669363,-1.580006,-77.778069,-117.356784,3.41,3.10096332414479,1.7336299067438234,-9.12233109169109,-0.006807323267845241,0.007539313584195807,0.006912970165930844,3.552667475467934,2.1320676286893434,0.012286987259244495
9.57826,-0.096065,2.115473,-0.003594,0.004648,-0.003408,0.397167,-0.541815,-0.317204,-0.669385,-1.548219,-77.777232,-117.387233,3.42,3.0991202196101604,1.7388246742064102,-9.120921378521409,-0.007347319386405029,0.008388651617861176,0.006159201926657772,3.553597808309989,2.11765306364239,0.012739244345919144
9.576817,-0.061617,2.112867,-0.003605,0.001738,0.000323,0.397152,-0.541801,-0.317241,-0.669388,-1.526587,-77.778289,-117.406838,3.43,3.096323227439187,1.7438311675214029,-9.11879723068513,-0.007893023953213847,0.00905681536102793,0.0057201547168606835,3.5536129037359263,2.1137652694606373,0.01330585967138473
9.528002,-0.063701,2.11233,-0.0107,0.001406,-0.00202,0.397112,-0.541795,-0.317262,-0.669407,-1.503012,-77.779221,-117.432335,3.44,3.0927137229223147,1.748472942847622,-9.11606281448732,-0.008425731731102837,0.009517278032422678,0.005620033769334237,3.5527504561708563,2.113290289170184,0.013898068783806105
9.577295,-0.064791,2.07902,-0.008495,0.007236,0.002449,0.397099,-0.541775,-0.317266,-0.669428,-1.489421,-77.777095,-117.446579,3.45,3.088475140056697,1.752594669926796,-9.112853297092416,-0.008926824844178947,0.009752554193445069,0.005865722768358596,3.5510937424692197,2.080029334908765,0.014463997327501617
9.526786,-0.045567,2.129083,-0.007228,0.005401,-0.000248,0.39708,-0.541753,-0.317285,-0.669449,-1.468522,-77.77574,-117.467398,3.46,3.083822441163757,1.756069786400926,-9.109325708847358,-0.009378563497156265,0.009754574463259849,0.00644558802729762,3.5487662565087867,2.129570560553935,0.01498848829092232
9.502874,-0.049577,2.094901,-0.003691,0.006529,0.000477,0.397073,-0.541722,-0.317312,-0.669465,-1.447023,-77.774045,-117.486917,3.47,3.0789897035716933,1.7588066594797853,-9.105648967999553,-0.009764776401072013,0.009524519765399154,0.007329305897033416,3.545924203946123,2.0954875515569165,0.015485026956925224
9.552923,-0.081822,2.098996,0.00355,0.004038,-0.003005,0.39707,-0.541681,-0.317374,-0.669471,-1.413662,-77.77361,-117.514608,3.48,3.0742166603793315,1.7607528828962598,-9.101993833888763,-0.010071436973933324,0.00907219063672678,0.00846879488610332,3.5427473505150404,2.1005901665246367,0.015983083948096936
9.528294,-0.053894,2.027322,-0.001206,0.003802,-0.002975,0.397053,-0.541649,-0.317425,-0.669482,-1.381801,-77.773521,-117.543273,3.49,3.069735101364027,1.7618974296602627,-9.098523485450098,-0.01028712172729736,0.008415015697045138,0.009800262634856028,3.53942878798117,2.0280382281702676,0.016513101172278475
9.549128,-0.022675,2.181568,-0.021483,0.0076,-0.003887,0.396986,-0.541643,-0.3174,-0.669539,-1.359559,-77.770987,-117.574117,3.5,3.065756022640042,1.7622704995693914,-9.095385296034998,-0.010403354978250368,0.007576816849440687,0.011247299522489991,3.5361642077265363,2.181685837660638,0.01709209451536173
9.525116,-0.027166,2.147841,-0.02533,0.014037,0.006148,0.39695,-0.54164,-0.317324,-0.669598,-1.364995,-77.764907,-117.578762,3.5100000000000002,3.062458320482017,1.7619410386222163,-9.09270421170411,-0.010414848485399725,0.006586447518679395,0.012724870852720447,3.5331412635600445,2.1480127915906366,0.01771363029163038
9.549475,-0.014651,2.09635,-0.023003,0.01122,0.012253,0.396934,-0.541655,-0.317238,-0.669636,-1.388093,-77.760307,-117.565098,3.52,3.0599796749956805,1.761012055153499,-9.090577961614555,-0.010319645729520344,0.005476406314377112,0.014143985085318233,3.5305295735601225,2.096401195931018,0.01834498373388926
9.478687,-0.059056,2.030394,-0.011026,0.010893,0.007848,0.396939,-0.541637,-0.317212,-0.669661,-1.390014,-77.756005,-117.564954,3.5300000000000002,3.0584100849193696,1.7596140040839239,-9.089074159990153,-0.010119179088566759,0.004281505656400545,0.015416754688826324,3.5284718634140706,2.0312526692590462,0.018931597958115554
9.526667,-0.054828,2.066321,0.006959,0.006064,0.004444,0.396976,-0.54159,-0.317265,-0.669651,-1.373082,-77.754149,-117.573204,3.54,3.0577883161016004,1.7578966477980715,-9.0882292184105,-0.009818245496084942,0.003037648236754342,0.016461527275248477,3.5270766947186103,2.067048278252107,0.01940636832757223
9.477314,-0.082781,2.171949,0.00831,-0.000559,0.001589,0.396993,-0.541562,-0.317343,-0.669627,-1.348133,-77.756492,-117.589218,3.5500000000000003,3.0581013294631183,1.7560199200969484,-9.088048884285326,-0.009424903621089303,0.0017807391963055848,0.017207753484154757,3.5264131495106166,2.1735259723688607,0.019700421831106093
9.502298,-0.084631,2.138056,-0.003622,0.003661,-0.00057,0.396975,-0.541542,-0.317373,-0.66964,-1.325561,-77.756307,-117.610706,3.56,3.059286571423266,1.7541444021507386,-9.088510156051816,-0.008950293531408474,0.0005457426400049315,0.017600274997367497,3.526507749840839,2.1397303253674282,0.019752854712938365
9.526257,-0.067901,2.120054,-0.013082,0.002247,-0.002453,0.396926,-0.54154,-0.317385,-0.669665,-1.302018,-77.757094,-117.637824,3.5700000000000003,3.061236850370538,1.7524220475559449,-9.089564290870937,-0.008408377596386457,-0.0006341212440905828,0.017602755905018044,3.527343772136011,2.1211410864713836,0.01951819507555113
9.549952,-0.06424,2.155113,-0.014349,0.004077,0.000245,0.396882,-0.54154,-0.317378,-0.669695,-1.286551,-77.756569,-117.658106,3.58,3.0638073965616286,1.7509877588383833,-9.091140607608837,-0.007815598407263976,-0.001728049370498474,0.01720003569803844,3.528862974787716,2.1560702262145823,0.0189713194349867
9.623065,-0.062024,2.156448,-0.013273,0.001168,0.009939,0.396871,-0.541561,-0.317358,-0.669693,-1.295893,-77.757811,-117.651686,3.59,3.0668246188379378,1.7499523293656962,-9.09315079067236,-0.007190446212985892,-0.0027082149502345126,0.016399246439572582,3.530969611560384,2.157339786236744,0.018110003554509615
9.572889,-0.030651,2.152965,-0.013193,0.001213,0.005162,0.396853,-0.541571,-0.317354,-0.669698,-1.293247,-77.758704,-117.656601,3.6,3.070096032673708,1.7493971436997573,-9.09549341839114,-0.0065529267000502475,-0.0035502325300208683,0.015229608081306165,3.5335364744436575,2.1531831726599573,0.0169554109848047
9.54877,-0.048478,2.171625,-0.008651,0.007132,0.012011,0.396871,-0.541567,-0.317332,-0.669701,-1.305054,-77.756502,-117.644948,3.61,3.0734208333370505,1.7493708961180054,-9.098058477468454,-0.0059239223178828345,-0.004233551745417974,0.013740894746640073,3.536412610397,2.1721660289004157,0.015550820057080033
9.52391,-0.034934,2.153073,-0.010903,0.002246,0.00948,0.396865,-0.54158,-0.317315,-0.669702,-1.3117,-77.75687,-117.640507,3.62,3.076600611036752,1.7498884539245063,-9.100731686610604,-0.005324448123848057,-0.004741802519115917,0.012000650131773042,3.5394322879538205,2.153356386593961,0.013958869672687236
9.549214,-0.053647,2.138004,-0.013306,0.005014,0.008156,0.396855,-0.541586,-0.317293,-0.669714,-1.316123,-77.755931,-117.639139,3.63,3.0794497368755755,1.7509318652228014,-9.103398533967713,-0.004774815623759783,-0.005063108977697125,0.010090317089578967,3.542424745650308,2.138676951908586,0.01225758686402781
9.499368,-0.038127,2.153332,-0.014439,0.001114,0.008754,0.396841,-0.541603,-0.317275,-0.669716,-1.321971,-77.756738,-117.636258,3.64,3.081804979063307,1.752453392419825,-9.105948018127249,-0.004293733003995361,-0.005190377904259305,0.00810052641858758,3.545224227264496,2.153669512797402,0.01053540194567144
9.500967,-0.060684,2.103243,-0.014439,0.001113,0.008755,0.396824,-0.541625,-0.317254,-0.669718,-1.32886,-77.758026,-117.633031,3.65,3.083533935056541,1.7543803432806429,-9.10827614593572,-0.0038973846910150293,-0.005121551659617389,0.006125853261598202,3.547679793546027,2.1041182630510575,0.008885154867222139
9.49998,-0.043128,2.118987,-0.015541,-0.0018,0.006517,0.396792,-0.541655,-0.31724,-0.66972,-1.331066,-77.760728,-117.635412,3.66,3.0845418910139646,1.7566213704412998,-9.110289259919803,-0.0035985449218999747,-0.0048597987162689515,0.004259388603313969,3.5496643949127185,2.1194258492697973,0.007396591133192531
9.499722,-0.028553,2.099911,-0.017906,-0.007723,0.011598,0.396761,-0.541718,-0.317218,-0.669698,-1.347999,-77.767039,-117.62394,3.67,3.084776754155307,1.7590738185887538,-9.111907235170301,-0.003405787176973959,-0.004413601624803823,0.002587484125692173,3.5510826971814344,2.1001051120670127,0.006146083281083993
9.500883,-0.048386,2.083302,-0.013055,-0.009362,0.007681,0.396723,-0.541773,-0.31722,-0.669675,-1.352593,-77.77415,-117.623113,3.68,3.084231756574472,1.7616316198558817,-9.113066509639093,-0.0033228526596497756,-0.0037966961773670555,0.0011850110185160625,3.551877178667431,2.0838638218943197,0.005182711913176313
9.498427,-0.009794,2.148662,-0.018017,-0.003927,0.014596,0.396707,-0.541829,-0.317182,-0.669657,-1.377302,-77.778244,-117.60375,3.69,3.082945708369613,1.7641931801883832,-9.113722815724588,-0.003348235738034972,-0.0030278188651202027,0.00011143018747296479,3.5520320687991846,2.1486843213185134,0.004515615829996242
9.524595,-0.031816,2.098035,-0.01782,-0.01252,0.01144,0.396672,-0.541905,-0.317169,-0.669622,-1.394968,-77.786977,-117.59121,3.7,3.081000686035756,1.7666686734805914,-9.113853393341705,-0.0034750321995231192,-0.0021302323953581274,-0.0005920924361899911,3.551574781587806,2.0982762256387977,0.00411877558249404
9.499107,7.8e-05,2.093794,-0.023805,-0.009945,0.011339,0.39662,-0.541987,-0.317132,-0.669604,-1.4148,-77.794562,-117.580232,3.71,3.0785171759313075,1.768986177894159,-9.113458411820469,-0.003691077954069466,-0.0011310189757980037,-0.0009043700757230488,3.5505746154791136,2.093794001452865,0.003964989989961653
9.501294,-0.038742,2.061051,-0.023769,-0.013803,0.013123,0.396561,-0.542089,-0.317091,-0.669576,-1.440408,-77.80421,-117.564752,3.72,3.0756468449847243,1.7710961590342897,-9.112561327766848,-0.003979383170549325,-6.015481590998113e-05,-0.0008246096633114689,3.5491386447433273,2.0614150885168665,0.004064368353970272
9.501551,-0.040203,2.059839,-0.017786,-0.011539,0.008609,0.396514,-0.54216,-0.317084,-0.669549,-1.4497,-77.812745,-117.56103,3.73,3.072563270969462,1.77297392964691,-9.111207963853913,-0.004318842484002699,0.0010505971389832165,-0.00037157521443635926,3.5474049119487567,2.0602312945710737,0.004460294036277177
9.525273,-0.021697,2.074642,-0.012904,-0.017029,0.00647,0.396459,-0.542238,-0.317106,-0.669509,-1.45079,-77.824233,-117.563818,3.74,3.0694511189251013,1.7746198864219975,-9.109464201958918,-0.004685179098462257,0.0021689193154898374,0.00041839926088069125,3.545533233909249,2.074755452570977,0.005179784949520397
9.551234,-0.055657,2.07661,-0.010574,-0.007245,-0.000391,0.396408,-0.542266,-0.31714,-0.6695,-1.431771,-77.830439,-117.584831,3.75,3.066494383035822,1.7760575211404048,-9.107412325298771,-0.005052062262513165,0.0032632255543947274,0.0014943753720315183,3.5436941345987587,2.0773557215241207,0.0061971874165381476
9.575609,-0.068205,2.128939,-0.010552,-0.014021,0.005118,0.396366,-0.542324,-0.317171,-0.669463,-1.428036,-77.840127,-117.590228,3.7600000000000002,3.063864409908007,1.7773293993580435,-9.105146194785203,-0.0053923257554833294,0.004303923033839306,0.0027945265002986275,3.5420565941446167,2.1300312644996553,0.007443810106076906
9.577372,-0.09035,2.077709,-0.015448,-0.006608,0.006369,0.396326,-0.54237,-0.317169,-0.669451,-1.429707,-77.84587,-117.592932,3.77,3.0617084694879977,1.7784914712440352,-9.102765581797822,-0.0056792106546764915,0.005264571551973722,0.0042503376471722445,3.540775432786201,2.079672524985845,0.00883371481320354
9.600353,-0.069012,2.127641,-0.015447,-0.006609,0.00637,0.396287,-0.542415,-0.317165,-0.669439,-1.43157,-77.851289,-117.59543,3.7800000000000002,3.0601396396409424,1.7796062113719238,-9.1003700856448,-0.005887558738830603,0.006122867150860922,0.0057910008695855044,3.5399792205117997,2.128759939736043,0.010280493233391695
9.576654,-0.073743,2.092382,-0.014342,-0.003701,0.008611,0.396261,-0.542453,-0.317155,-0.669428,-1.438378,-77.855334,-117.59223,3.79,3.0592287207550886,1.7807351718405118,-9.098053128861864,-0.005994892559821673,0.006861387853130394,0.007347714454247215,3.5397596130419187,2.09368107981445,0.011704968508118424
9.576057,-0.072105,2.126791,-0.016823,0.003862,0.007457,0.396236,-0.542468,-0.317122,-0.669447,-1.442946,-77.854777,-117.593194,3.8000000000000003,3.0589988011668554,1.7819315755428868,-9.095896541972516,-0.005982332872034866,0.00746805503392478,0.008857608094919657,3.5401629631214737,2.1280129437355404,0.013039071046080868
9.574655,-0.038834,2.124443,-0.018038,0.004749,0.008216,0.396212,-0.542485,-0.317084,-0.669465,-1.450259,-77.853988,-117.591645,3.81,3.0594229553512737,1.7832335738289633,-9.093966218783557,-0.005835321568571439,0.00793628446965751,0.010267048720050725,3.5411849427220177,2.124797905638322,0.014228417986967393
