Acc_X,Acc_Y,Acc_Z,Gyr_X,Gyr_Y,Gyr_Z,Quat_q0,Quat_q1,Quat_q2,Quat_q3,Roll,Pitch,Yaw,Time,Acc_X_global,Acc_Y_global,Acc_Z_global,Gyr_X_global,Gyr_Y_global,Gyr_Z_global,Acc_Global_Mag,Acc_Local_Mag,Gyr_Global_Mag
9.573669,-0.092638,1.698454,0.006616,0.009165,0.002699,0.392997,-0.551389,-0.320718,-0.662317,-2.629948,-79.256247,-116.455018,0.0,1.2366330857677602e-09,6.278751573734428e-10,-4.276383175677844e-09,-2.470134229767713e-12,3.121565280021722e-12,-3.6088267223127905e-12,1.3868989155890987e-09,1.7009784799226588,5.3730217961763474e-12
9.564574,-0.087035,1.808212,0.005195,0.013063,-0.006233,0.393002,-0.55131,-0.320783,-0.662348,-2.578963,-79.251388,-116.499226,0.01,2.4004433356157125e-08,1.2223236320100708e-08,-8.292669565013207e-08,-5.1549017502029666e-11,5.780833675269273e-11,-6.998720733643107e-11,2.69373407538164e-08,1.8103054240014307,1.0439020162012275e-10
9.594392,-0.125517,1.857608,-0.009429,0.010732,-0.009853,0.392952,-0.551262,-0.320814,-0.662403,-2.526188,-79.24793,-116.553618,0.02,2.316587552018967e-07,1.1830520493037326e-07,-7.994001118077321e-07,-5.33643633333643e-10,5.287537322700191e-10,-6.680306475076906e-10,2.601190119451285e-07,1.8618437095935307,1.0052964651268555e-09
9.690537,-0.100757,1.843704,-0.026797,0.017077,0.001021,0.392899,-0.551244,-0.320744,-0.662483,-2.514936,-79.240578,-116.576042,0.03,1.488588847595525e-06,7.623806913242762e-07,-5.130481922916963e-06,-3.669181533488036e-09,3.203947157293553e-09,-4.1930546960011525e-09,1.672459588656735e-06,1.8464550935955633,6.4272761101477795e-09
9.640657,-0.065768,1.708375,-0.033658,0.027403,0.012245,0.392871,-0.551232,-0.32059,-0.662585,-2.541794,-79.227164,-116.565642,0.04,7.1966181452880945e-06,3.69599157699579e-06,-2.477138519510982e-05,-1.8931356960813513e-08,1.4571032335924008e-08,-1.9505374396585255e-08,8.09022042136762e-06,1.7096404798813698,3.084105851074585e-08
9.607943,-0.014336,1.749462,-0.026581,0.023855,0.013798,0.392871,-0.551212,-0.320472,-0.662658,-2.56795,-79.215609,-116.549863,0.05,2.8038207246285252e-05,1.443790175997484e-05,-9.638295943848322e-05,-7.850802122625977e-08,5.347356480272358e-08,-7.182289438116056e-08,3.153718555636072e-05,1.7495207373277974,1.1908593404286368e-07
9.576276,-0.073493,1.773572,-0.02139,0.018026,0.013044,0.392859,-0.551211,-0.32037,-0.662715,-2.592175,-79.207613,-116.53606,0.06,9.204930276876347e-05,4.751792108629926e-05,-0.00031601628458321655,-2.736156593730696e-07,1.663443666727922e-07,-2.1816793631700936e-07,0.00010359067025837437,1.7750940426447832,3.874702902349478e-07
9.557385,-0.163306,1.789091,-0.017101,0.021093,0.00934,0.392867,-0.551175,-0.320301,-0.662774,-2.599828,-79.197752,-116.533587,0.07,0.0002627969362859406,0.00013597615708439592,-0.0009011123451109846,-8.270394672509407e-07,4.548601438826143e-07,-5.618145900254021e-07,0.0002958914412697958,1.7965287239331855,1.098420531694962e-06
9.544234,-0.133589,1.799428,-0.011248,0.019366,0.01117,0.392896,-0.551135,-0.320251,-0.662814,-2.610836,-79.188814,-116.52413,0.08,0.0006679198944839374,0.00034633038893224107,-0.0022877034653315297,-2.2192500563724783e-06,1.1239810375852916e-06,-1.2481850915493525e-06,0.0007523707355721589,1.8043799899425288,2.7832301752328394e-06
9.578454,-0.176748,1.794566,-0.006156,0.006749,0.012117,0.39292,-0.55113,-0.320239,-0.66281,-2.622483,-79.18709,-116.511207,0.09,0.0015387376222198716,0.0007994155483852857,-0.00526519450628263,-5.382168250184152e-06,2.56264875186642e-06,-2.4135421817354595e-06,0.0017340065423852966,1.8032490077246681,6.4311810394164165e-06
9.623901,-0.188336,1.83249,0.005729,0.008014,0.008798,0.392964,-0.551094,-0.320269,-0.662799,-2.618499,-79.18478,-116.508003,0.1,0.00325923060535923,0.001696231660783764,-0.01114299079611662,-1.1964435655663328e-05,5.47259127286709e-06,-4.053184258001057e-06,0.003674205490436747,1.8421427873528153,1.3766818021157852e-05
9.661142,-0.171141,1.824408,0.016288,0.004315,0.007461,0.393031,-0.551044,-0.32035,-0.662761,-2.603666,-79.184572,-116.508947,0.11,0.006419921760004485,0.0033464562221449745,-0.021933823673669185,-2.4655205197453474e-05,1.1059191420051388e-05,-5.783295619775412e-06,0.007239762748275105,1.832417472178488,2.7633880770163073e-05
9.64154,-0.149181,1.855122,0.013694,0.005609,0.004264,0.393081,-0.550993,-0.320425,-0.662739,-2.581971,-79.183732,-116.518843,0.12,0.011869651117801402,0.006195904339054494,-0.04052991732662575,-4.7532466926053945e-05,2.128957605829061e-05,-6.491839341162942e-06,0.013389467810075141,1.8611105839377196,5.24854783616347e-05
9.648151,-0.140747,1.83398,0.010728,0.007507,0.005986,0.393132,-0.550942,-0.320484,-0.662722,-2.565475,-79.181734,-116.524721,0.13,0.02075650698127752,0.010848264333605421,-0.0708420903391189,-8.638079704297411e-05,3.9206844189258866e-05,-3.9058457497386405e-06,0.02342044878125946,1.8393728165896657,9.494247921810899e-05
9.613531,-0.09938,1.840865,0.01391,0.009139,0.009892,0.393205,-0.550887,-0.320538,-0.662698,-2.559132,-79.178735,-116.518906,0.14,0.034548665385045994,0.018076129544706436,-0.11786995269165071,-0.00014890693509166098,6.926834195454553e-05,5.86157819061152e-06,0.03899175219459731,1.8435455873465674,0.00016433422228619529
9.629037,-0.07128,1.830712,0.01565,0.009065,0.008448,0.393281,-0.550824,-0.320604,-0.662673,-2.546989,-79.175781,-116.517483,0.15,0.055026777983226006,0.02881680304209758,-0.18767425982213753,-0.00024477456401759805,0.00011765482872992619,2.868981198535158e-05,0.06211565368554283,1.8320991417890027,0.0002730940336683105
9.665497,-0.10239,1.858131,0.018981,0.009808,0.008958,0.393367,-0.550756,-0.320676,-0.662644,-2.53543,-79.172412,-116.513975,0.16,0.0842417794237212,0.04414955488385539,-0.2872301106381053,-0.0003853860010305999,0.00019248185463106632,7.264206350479836e-05,0.0951097292442653,1.860949898643432,0.0004368621104453986
9.628615,-0.072298,1.832887,0.02038,0.015947,0.008852,0.393468,-0.550662,-0.320743,-0.66263,-2.520881,-79.165509,-116.512241,0.17,0.12443529492561427,0.06525282545286974,-0.4241511676305045,-0.0005833599589108197,0.00030383980312588706,0.0001478587681712259,0.14050649042947194,1.8343123386089404,0.000674158499871598
9.599883,-0.07049,1.853801,0.020085,0.014484,0.008499,0.393562,-0.550575,-0.32081,-0.662614,-2.506019,-79.159481,-116.511577,0.18,0.17792380630792723,0.09334206613486021,-0.6062890153077004,-0.0008516897125958892,0.0004635980824669445,0.0002660674933084602,0.2009219305138825,1.8551406921581448,0.0010055299396856086
9.588471,-0.102308,1.812037,0.02371,0.01669,0.009363,0.393675,-0.550473,-0.320886,-0.662595,-2.491009,-79.15214,-116.508369,0.19,0.24695189461654923,0.12959121146251834,-0.8412264257924739,-0.0012026103434168796,0.0006849321528564586,0.00043966978610113314,0.27888908250956396,1.8149228678467302,0.0014521409067029495
9.588163,-0.102791,1.81364,0.018859,0.01631,0.008776,0.393781,-0.550376,-0.320954,-0.662579,-2.477111,-79.14492,-116.505361,0.2,0.33352372915543743,0.17504289709475276,-1.1356968784563513,-0.0016462505508166962,0.0009815665138329854,0.000680425176427386,0.37666708607611815,1.8165505881425377,0.0020338613811808205
9.616337,-0.105699,1.795674,0.021155,0.013554,0.011624,0.393889,-0.550293,-0.321021,-0.662551,-2.470729,-79.139319,-116.494859,0.21,0.4392250777950356,0.23051421704247121,-1.4949735662206525,-0.0021891865142365857,0.0013667670367160402,0.000997816287697098,0.4960397899591913,1.7987821971759115,0.002766988809294771
9.609298,-0.1151,1.818853,0.022967,0.014657,0.012057,0.394009,-0.550202,-0.321092,-0.662521,-2.465088,-79.13305,-116.4822,0.22,0.5650501284021703,0.2965058517838894,-1.9222780491171667,-0.002833045810736069,0.0018521555611403298,0.0013972365778072203,0.638120182841288,1.8224912196246652,0.003661816331106009
9.606848,-0.127234,1.787793,0.01993,0.015379,0.011901,0.394118,-0.550116,-0.32115,-0.6625,-2.459993,-79.126398,-116.471103,0.23,0.7112481163754989,0.3731226755192213,-2.418260895652907,-0.003573323325624569,0.002446452166448231,0.0018781850967316623,0.8031776976698976,1.7923147886476305,0.0047203121771506595
9.584886,-0.117212,1.786835,0.016151,0.014068,0.014435,0.394223,-0.550046,-0.321191,-0.662475,-2.465239,-79.120432,-116.451707,0.24,0.8772040677270029,0.4600134334890943,-2.9806038285090843,-0.004398565450485357,0.0031542709872643343,0.0024326749504249667,0.9905045862726864,1.7906752832853308,0.00593419842082535
9.591391,-0.109678,1.766471,0.016445,0.015532,0.014789,0.394332,-0.549971,-0.32123,-0.662454,-2.470703,-79.11362,-116.43189,0.25,1.0613659491728706,0.5563358244286544,-3.6037853343544373,-0.005290053274623986,0.003975100911428669,0.0030440610264414673,1.1983351900058428,1.7698726105358542,0.007283707739681822
9.564758,-0.097141,1.820034,0.010667,0.018441,0.014826,0.394431,-0.549897,-0.321245,-0.66245,-2.479012,-79.105117,-116.412308,0.26,1.2612273497705786,0.6607514602045848,-4.279040141283125,-0.006222072408745904,0.004902592325508952,0.0036864679718168663,1.4238282621060057,1.8226245183901701,0.008737256015308689
9.586178,-0.109212,1.823732,0.014971,0.008214,0.013025,0.394519,-0.549846,-0.321298,-0.662414,-2.480987,-79.102538,-116.396902,0.27,1.4733707867545593,0.7714528911962225,-4.994528500763964,-0.007162801589864328,0.005924246755352313,0.004324954080400022,1.6631178667180386,1.8269990883325584,0.010252202399076706
9.54511,-0.102307,1.733172,0.016596,0.014638,0.011394,0.394623,-0.549763,-0.321355,-0.662393,-2.476336,-79.096224,-116.385938,0.28,1.6935721846948275,0.8862223999151352,-5.735715151651571,-0.00807579112510088,0.0070215709473967465,0.004916485540898256,1.9114332023074603,1.7361889021166446,0.011776786104003324
9.589935,-0.088337,1.891444,0.000969,0.017685,0.013643,0.39469,-0.549709,-0.321341,-0.662404,-2.486932,-79.088208,-116.369923,0.29,1.9169624109654915,1.0025198023360027,-6.485941604060176,-0.008921942900440646,0.008170714785036058,0.005411724764169869,2.1632824224151705,1.8935056986196264,0.013253241495583618
9.520245,-0.079642,1.821094,-0.004444,0.023238,0.015906,0.394768,-0.549646,-0.321301,-0.66243,-2.506284,-79.076831,-116.346353,0.3,2.1382373526265552,1.1175942680945827,-7.227160337988565,-0.009661852793952527,0.00934356783481395,0.0057575630698847025,2.412690598532121,1.8228346620031122,0.014622010525214316
9.53134,-0.075623,1.746993,0.000434,0.019191,0.021962,0.394863,-0.549601,-0.321259,-0.662431,-2.541591,-79.06774,-116.30548,0.31,2.351904249654223,1.2286133555320955,-7.940786890809905,-0.01025833911661357,0.010509246510524315,0.005900258477969761,2.6534777890409087,1.7486290001535487,0.01582690221607708
9.446002,-0.095861,1.687328,0.01266,0.014222,0.01733,0.394969,-0.549542,-0.321281,-0.662406,-2.557395,-79.0616,-116.277141,0.32,2.5525491547154595,1.3328011869197847,-8.6086165864103,-0.010678960682003621,0.011635866888630709,0.005788979923201171,2.8795600690198135,1.6900488486742031,0.016820995453567484
9.527812,-0.138205,1.752162,0.02781,0.001742,0.014571,0.395087,-0.549489,-0.321386,-0.662329,-2.557372,-79.062681,-116.256276,0.33,2.7351086823038875,1.4275770402664882,-9.21374749746879,-0.010898326986970039,0.012692470983230803,0.00537951547961163,3.0852545616059195,1.7576041352560023,0.017573034387107323
9.514142,-0.156367,1.795799,0.028512,-0.001831,0.015469,0.39521,-0.549444,-0.321503,-0.662236,-2.559211,-79.065691,-116.231778,0.34,2.8951287513925124,1.5106856272486135,-9.741450437859259,-0.010900020206718777,0.013650959909215254,0.004637878174506247,3.265569100710488,1.8025938774693537,0.018073988516966618
9.5231,-0.13728,1.806436,0.017818,-0.000475,0.013032,0.395292,-0.549416,-0.321583,-0.662172,-2.560655,-79.068081,-116.21525,0.35000000000000003,3.0289938234951825,1.5803109282604344,-10.17993030353411,-0.010677980980908237,0.014487887062707101,0.0035435398125755546,3.4164581385919717,1.8116447832000622,0.018343250087530884
9.582218,-0.131669,1.800092,0.006084,-0.002614,0.012934,0.395327,-0.549427,-0.321616,-0.662125,-2.571914,-79.071856,-116.197755,0.36,3.134112105038818,1.6351665896701912,-10.52093053650198,-0.010237251782067733,0.015185976861084156,0.00209203890319913,3.535028778231444,1.8049010870474316,0.018433443629645847
9.623966,-0.092427,1.85625,0.001306,-0.001811,0.014215,0.395365,-0.549438,-0.32164,-0.662082,-2.586519,-79.074979,-116.177458,0.37,3.209045152531585,1.674557455739956,-10.760143218229878,-0.009594017098141302,0.015735256353799815,0.0002967399706101047,3.619684166272071,1.8585496530437382,0.018431807052196016
9.654578,-0.084962,1.869389,-0.003106,0.001638,0.017724,0.395402,-0.549457,-0.321626,-0.662051,-2.615559,-79.076127,-116.146353,0.38,3.253574058718223,1.6984086979714503,-10.897400434868457,-0.008774924583350814,0.016133714518324883,-0.0018104336940081224,3.6701956706569816,1.8713187261300517,0.018454639410259457
9.670261,-0.058115,1.858833,-0.002921,0.009603,0.017885,0.395458,-0.549445,-0.321603,-0.662038,-2.64193,-79.072617,-116.116539,0.39,3.2686986219272125,1.7072610976622076,-10.936637088927665,-0.007815714388299711,0.016387434955912175,-0.004179412864502001,3.6876999791983653,1.8597412387517784,0.018630644318586843
9.675831,-0.099369,1.873732,0.002562,0.018509,0.015596,0.395529,-0.549395,-0.321578,-0.66205,-2.659344,-79.064188,-116.094416,0.4,3.2565702885064103,1.7022332000266487,-10.885630193578086,-0.006759225685200574,0.01651018126560244,-0.006743585607329129,3.674622145371642,1.876365051365272,0.019072209209472862
9.684406,-0.081005,1.886421,0.002998,0.022335,0.0197,0.395628,-0.549332,-0.321545,-0.662059,-2.685882,-79.053339,-116.060977,0.41000000000000003,3.2203638825314003,1.6849531464433523,-10.755533828853853,-0.0056528906186447845,0.0165224506473066,-0.009422547856674355,3.634530319260257,1.8881594210410304,0.019842654959716533
9.703431,-0.10506,1.858832,0.001751,0.028585,0.014508,0.395709,-0.549248,-0.321502,-0.662101,-2.698545,-79.039158,-116.04393,0.42,3.1640968965486023,1.6574648597579515,-10.560241407087709,-0.004545865719022295,0.016450049900168923,-0.012125863589968979,3.5719321007097746,1.861798594860357,0.02093574944099124
9.673268,-0.152332,1.91664,-0.003137,0.035893,0.015597,0.3958,-0.549145,-0.321433,-0.662165,-2.71447,-79.020657,-116.024878,0.43,3.0924081637221312,1.6221147719604183,-10.31561688589137,-0.0034859865266045884,0.016322287241795356,-0.014757606743991647,3.4920258567867855,1.9226840426403917,0.022279051139526832
9.679408,-0.145322,1.898382,-0.002843,0.037357,0.015952,0.395906,-0.54903,-0.321372,-0.662227,-2.729569,-79.001164,-116.004415,0.44,3.010309887692099,1.581426335442034,-10.038643485880094,-0.002516758677861602,0.01616990990942443,-0.01722138443609921,3.4004227493602084,1.9039361075435277,0.02375660208483979
9.648043,-0.156014,1.888882,-0.00581,0.039265,0.017666,0.396001,-0.548925,-0.321282,-0.662301,-2.752513,-78.980674,-115.979771,0.45,2.922928171888715,1.5379700789953323,-9.746541966137087,-0.0016746132633088454,0.01602294666568118,-0.0194254965590855,3.3028565003502064,1.8953141106740063,0.02523666115000073
9.588124,-0.164388,1.898837,-0.007034,0.041094,0.01794,0.396095,-0.548818,-0.32118,-0.662383,-2.777401,-78.959157,-115.954392,0.46,2.835247341701361,1.4942369363889534,-9.45591049234741,-0.0009866514863751694,0.015908631207996064,-0.021287875693284115,3.2048980499687785,1.9059394972330577,0.026593827847835465
9.603181,-0.137725,1.891715,-0.008781,0.041175,0.019383,0.396191,-0.548715,-0.321072,-0.662463,-2.806614,-78.937521,-115.92509,0.47000000000000003,2.751872536332479,1.4525220168500648,-9.18193476315905,-0.0004690804907305974,0.015849583192112132,-0.022740472915771488,3.11169128701019,1.8967218606980836,0.027722886435279502
9.580731,-0.128563,1.893236,-0.006516,0.042843,0.016777,0.396298,-0.548592,-0.320984,-0.662544,-2.82605,-78.91487,-115.902613,0.48,2.676823365091288,1.4148249745570018,-8.937710728200447,-0.00012649776234362374,0.015862406345839797,-0.023732804293489368,3.02772406875674,1.8975961099941683,0.028546066916433233
9.556242,-0.130724,1.862177,-0.010371,0.040361,0.017428,0.396382,-0.548491,-0.320877,-0.662629,-2.850383,-78.893751,-115.879208,0.49,2.613369022666462,1.3827717718855463,-8.733713508390933,4.788254583320057e-05,0.015956828760181303,-0.024234442005102663,2.9566459750460745,1.866759744451599,0.029016044804876993
9.609759,-0.123201,1.914162,-0.001566,0.036714,0.017573,0.396483,-0.548387,-0.320804,-0.66269,-2.87124,-78.87474,-115.854599,0.5,2.5639123208051937,1.3575610415123642,-8.577435719275329,7.10471184276088e-05,0.01613546207685571,-0.02423631499251659,2.9011408738992337,1.9181226886320384,0.029116269481909426
9.587395,-0.113757,1.915255,-0.007179,0.038738,0.014199,0.396562,-0.548281,-0.32072,-0.662771,-2.884434,-78.85464,-115.84068,0.51,2.5299268257204153,1.3399365649159272,-8.473207078745384,-3.1882518059537656e-05,0.016394198874113263,-0.0237507693050703,2.8628586660012525,1.9186303370044997,0.028859483983633593
9.624141,-0.097835,1.910627,-0.008336,0.041748,0.016348,0.396647,-0.548174,-0.320615,-0.66286,-2.905493,-78.832814,-115.820305,0.52,2.5119479119930332,1.3301857235429784,-8.422195744028084,-0.0002304411475572151,0.01672320699356143,-0.022810421568855887,2.8424067920837293,1.9131302152111864,0.028284873827205157
9.668581,-0.110058,1.952183,-0.011276,0.0404,0.010908,0.396707,-0.548064,-0.320523,-0.662959,-2.911153,-78.811857,-115.816456,0.53,2.509615277308206,1.3281622536694127,-8.422581018558697,-0.0004921029972986636,0.017108422030247206,-0.021465915237239685,2.8393984947821176,1.9552829025112965,0.027454066851695345
9.624545,-0.089198,1.951015,-0.007949,0.041136,0.011433,0.396781,-0.547946,-0.32044,-0.663052,-2.916922,-78.790436,-115.810317,0.54,2.521761517214552,1.3333303358344148,-8.469877552631957,-0.0007857684996201066,0.017533390621410898,-0.01978275440288372,2.852551653197634,1.953052946908762,0.026446069473227776
9.616723,-0.098919,1.976877,-0.005383,0.044266,0.009185,0.396857,-0.54781,-0.320365,-0.663156,-2.913642,-78.767317,-115.812139,0.55,2.546538914208383,1.3448260390958149,-8.557383454069843,-0.0010851378313696842,0.01798128262715978,-0.017837440620757615,2.8798294249847074,1.9793503079773425,0.025351101296194643
9.604915,-0.131032,1.937806,-0.000143,0.044023,0.004875,0.39692,-0.547666,-0.320305,-0.663265,-2.897338,-78.744638,-115.826829,0.56,2.581574785056847,1.361531456606666,-8.67671918803818,-0.0013716569135233123,0.01843687357278122,-0.015713171734088396,2.918612046533553,1.9422310569703078,0.02426321322026597
9.569783,-0.08954,1.947707,-0.000312,0.044921,0.008277,0.397009,-0.547516,-0.320247,-0.663364,-2.888501,-78.72117,-115.831355,0.5700000000000001,2.6241446347443778,1.3821565221778842,-8.818420967808189,-0.001636755985626169,0.01888830169505309,-0.01349537658008421,2.965888014719465,1.9497640804592233,0.023271701702241587
9.550989,-0.130423,1.930467,-0.005096,0.045734,0.009546,0.397095,-0.547372,-0.320173,-0.663467,-2.885841,-78.697132,-115.831447,0.58,2.671352008517146,1.4053234725961932,-8.972551539851338,-0.001883164097820955,0.019328426260537636,-0.011267355874572177,3.018452520090123,1.934867694964697,0.022451896960671694
9.566088,-0.102611,1.923756,-0.009841,0.043289,0.003659,0.397139,-0.547238,-0.3201,-0.663586,-2.869543,-78.674731,-115.849152,0.59,2.720304285169827,1.4296491818875743,-9.129292712804384,-0.0021251681152946633,0.019755653040511575,-0.009106279489302286,3.073101395526209,1.926490634510586,0.021856955247989755
9.536641,-0.100803,1.94691,-0.009084,0.040894,0.006435,0.397186,-0.54712,-0.320021,-0.663694,-2.862594,-78.653679,-115.857929,0.6,2.76827463836662,1.4538210914446124,-9.279487410667159,-0.0023877827049067946,0.0201741448153752,-0.007079756660018681,3.1268099141701984,1.9495178360068932,0.02151326520179261
9.512345,-0.101736,1.915606,-0.008917,0.039999,0.003037,0.397226,-0.546994,-0.319959,-0.663803,-2.844575,-78.633177,-115.876851,0.61,2.812841895929571,1.4766631376155943,-9.41510409391632,-0.002704897667534937,0.02059339432574006,-0.005243151180667629,3.1768874001905383,1.918305648464811,0.021421834551470963
9.517225,-0.141811,1.932772,-0.006474,0.036341,0.002499,0.397259,-0.54688,-0.319907,-0.663903,-2.825745,-78.61485,-115.896369,0.62,2.8520019139757915,1.4971888810173943,-9.529602675553793,-0.0031165605487099702,0.02102719832778615,-0.003637760525863075,3.2211006601414516,1.937967482623225,0.021565929630167943
9.554114,-0.124557,1.927894,-0.001692,0.03553,0.001238,0.397305,-0.546752,-0.319883,-0.663992,-2.799237,-78.596953,-115.919729,0.63,2.8842462073806674,1.5146399202665914,-9.618188117333458,-0.0036656268608854297,0.021492128242105404,-0.0022899182543696583,3.257761543277063,1.9319134870601737,0.02192241141549088
9.508394,-0.114062,1.893325,-0.004265,0.032401,0.003483,0.397347,-0.546644,-0.319849,-0.664072,-2.782017,-78.580778,-115.935192,0.64,2.9086057947391324,1.528508583389802,-9.677945270382036,-0.0043940609907111355,0.022005639555490505,-0.001211016199767872,3.2857763403321227,1.8967576796915835,0.02247270576660403
9.505936,-0.125692,1.863776,-0.007423,0.030772,-0.000446,0.397365,-0.546541,-0.31982,-0.664161,-2.75481,-78.565647,-115.962619,0.65,2.9246603884897016,1.5385447920018311,-9.707855782986416,-0.00533919426689831,0.02258399406741253,-0.00039838164823265826,3.304657087353647,1.8680094906182894,0.023209965346683584
9.535892,-0.117041,1.880097,-0.011219,0.029472,0.002066,0.397375,-0.546456,-0.319771,-0.664248,-2.738082,-78.551224,-115.98219,0.66,2.9325150677526595,1.5447478461289768,-9.708704630067418,-0.006530242027960139,0.02324018359514703,0.00016310935524451942,3.314497025299087,1.8837365328224644,0.024140770475310984
9.580384,-0.128118,1.920637,-0.006729,0.027196,0.000451,0.397392,-0.546365,-0.319749,-0.664324,-2.713617,-78.538111,-116.006416,0.67,2.9327483090442894,1.5473446419940446,-9.682889672013406,-0.007985351013454626,0.02398204039955408,0.0004988431488493874,3.315914366401795,1.9249053762959363,0.025281474186073065
9.612207,-0.108013,1.969255,-0.005213,0.026831,0.000539,0.397408,-0.546275,-0.319726,-0.664399,-2.690035,-78.52526,-116.029797,0.68,2.926336634871124,1.5467564756400127,-9.634152343554963,-0.009709396613928603,0.02481069992514799,0.0006418909558027085,3.3099700445054134,1.9722150144428978,0.026650614202705498
9.631401,-0.130638,1.94217,0.000514,0.031591,0.002232,0.397457,-0.546158,-0.319715,-0.664471,-2.665972,-78.50958,-116.04938,0.6900000000000001,2.9145621138011695,1.543557074399568,-9.567250906855227,-0.011692682797648063,0.02571954852361917,0.0006302400753525237,3.29806621478922,1.9465586546374605,0.028259710009442707
9.647072,-0.139172,2.0022,0.002324,0.03269,0.002679,0.397524,-0.546028,-0.319714,-0.664539,-2.641434,-78.493134,-116.066667,0.7000000000000001,2.8989094802049498,1.5384248203775222,-9.487599568523546,-0.013910623036627354,0.026693746604557443,0.000504026839976378,3.28183288763699,2.0070310624362544,0.030105075720065648
9.637476,-0.159466,1.994643,0.002676,0.035335,0.004916,0.397594,-0.545898,-0.319695,-0.664613,-2.623306,-78.475237,-116.078931,0.71,2.8809597419061586,1.5320922825361005,-9.400897142886818,-0.01632440530602244,0.027710370476518115,0.0003029473175349362,3.263010235456009,2.0010072720020284,0.03216275202184014
9.584635,-0.157773,1.982048,-0.002807,0.039725,0.00528,0.397667,-0.545758,-0.319656,-0.664702,-2.608405,-78.45469,-116.089338,0.72,2.862286841001904,1.5252961622510364,-9.312767915809367,-0.01888257445377182,0.02873916837301558,6.399353838741342e-05,3.2433338315305127,1.9883175284227115,0.034387432471002115
9.56399,-0.136023,2.015889,-0.007007,0.043467,0.007252,0.397731,-0.545624,-0.319582,-0.664809,-2.601413,-78.432077,-116.0959,0.73,2.844363277296326,1.5187305888880425,-9.228435071063075,-0.021523405969612323,0.029743881853200163,-0.00018037428512304544,3.2244294153936934,2.0204728943616144,0.03671495672219439
9.564723,-0.088631,1.984651,-0.009349,0.040621,0.00797,0.397778,-0.545513,-0.319493,-0.664916,-2.600518,-78.4112,-116.099585,0.74,2.82847965672875,1.5130063839988357,-9.15244369075023,-0.024177900034453366,0.03068404626637937,-0.0004035524768365957,3.2077227882954005,1.9866290660216366,0.03906717803930674
9.524458,-0.118538,1.964445,-0.014246,0.047941,0.009049,0.397835,-0.545381,-0.319381,-0.665043,-2.60215,-78.385979,-116.10158,0.75,2.815681957038091,1.5086184548852317,-9.088446185214297,-0.026773195708084473,0.03151715551104129,-0.0005855934827827988,3.1943691905617544,1.9680181440903943,0.0413579257175409
9.539649,-0.09129,1.957716,-0.012108,0.038389,0.013611,0.397908,-0.545278,-0.319292,-0.665127,-2.615547,-78.365972,-116.088493,0.76,2.8067289816121344,1.505922898929173,-9.039058334028054,-0.029236192541245272,0.032201057826648914,-0.0007134994651895536,3.1852050724781806,1.9598433102562052,0.04349910528908357
9.524535,-0.10999,2.004811,-0.010063,0.039772,0.012541,0.397976,-0.545171,-0.3192,-0.665218,-2.625485,-78.345336,-116.07956,0.77,2.8020710750603235,1.505124729921549,-9.005789238742778,-0.031497169471249004,0.032696440520682324,-0.0007810615388217674,3.1807236224342303,2.007825925179023,0.045406375813871386
9.546995,-0.074004,1.975984,-0.010178,0.037414,0.008784,0.398026,-0.545067,-0.319121,-0.665311,-2.626339,-78.326159,-116.080339,0.78,2.801849779949321,1.506276418591763,-8.989043717392857,-0.0334932058432413,0.03296926114850803,-0.0007883171171531601,3.1810738499141586,1.9773693029558237,0.047004132395071944
9.542872,-0.134676,1.982129,-0.010473,0.03595,0.008426,0.398072,-0.544966,-0.319047,-0.665401,-2.625571,-78.307818,-116.082577,0.79,2.8059168077668812,1.5092867207204042,-8.988191312169391,-0.035171233087386,0.03299298908084546,-0.0007407068933332194,3.1860815333967265,1.9866990203896011,0.048229675637286376
9.570909,-0.138176,1.966628,-0.011992,0.036317,0.008338,0.398119,-0.544865,-0.318971,-0.665493,-2.624939,-78.289209,-116.084892,0.8,2.8138695642226557,1.5139385994544272,-9.001692397352068,-0.03649057409476645,0.032750532915564484,-0.0006480127650857938,3.1952890334642077,1.971476172151213,0.04903651011810309
9.550317,-0.116737,1.999803,-0.009253,0.034122,0.008161,0.398165,-0.544768,-0.318906,-0.665576,-2.62298,-78.271921,-116.087631,0.81,2.8250995872755658,1.5199144838615357,-9.027269065765342,-0.037424857604044535,0.03223574434646455,-0.0005231524959720241,3.2080099308257526,2.003207319769474,0.049396729332898875
9.608859,-0.11139,1.997762,-0.007975,0.033472,0.009774,0.398227,-0.544667,-0.318849,-0.665649,-2.624049,-78.254839,-116.085009,0.8200000000000001,2.838849684182179,1.526826685616048,-9.062106664903972,-0.03796322542644141,0.03145440690697562,-0.00038089997834430756,3.223393748410291,2.0008649981305586,0.04930244703300137
9.541725,-0.127336,2.027903,-0.0075,0.034042,0.006735,0.398273,-0.544564,-0.318794,-0.665732,-2.617184,-78.237634,-116.091734,0.8300000000000001,2.8542753209792506,1.5342505483908069,-9.10307109364936,-0.03811078113925273,0.03042463823749128,-0.00023659419470579298,3.2404956955979274,2.031896905432212,0.04876624065620813
9.526719,-0.108367,2.006567,-0.008087,0.031114,0.006016,0.398292,-0.544484,-0.318725,-0.665819,-2.611529,-78.222346,-116.101145,0.84,2.870505920540559,1.5417578425736782,-9.146927223515696,-0.037888260784920566,0.029176657768274824,-0.00010489620116145907,3.2583464341588733,2.009491112739243,0.047820588317650375
9.517237,-0.12901,1.99849,-0.00383,0.028551,0.005932,0.398336,-0.544391,-0.318695,-0.665883,-2.601084,-78.208305,-116.109381,0.85,2.886702128115187,1.5489480397877076,-9.190544971293605,-0.03733093973867622,0.027751898932104117,1.3488577624661432e-06,3.276017278102625,2.0026497098094813,0.04651630851572182
9.507767,-0.149704,1.990359,-0.005294,0.030098,0.007722,0.398382,-0.544302,-0.318647,-0.665951,-2.597635,-78.193372,-116.112097,0.86,2.9021057451424306,1.5554753929627287,-9.231081463802482,-0.0364868250586847,0.026201476765865855,7.20898408795628e-05,3.2926769434764256,1.9959810210763527,0.04492005102980659
9.494496,-0.119462,2.001223,-0.007398,0.027537,0.00691,0.398418,-0.544221,-0.318604,-0.666016,-2.592072,-78.179886,-116.117435,0.87,2.916079837200082,1.5610701800300872,-9.266130202832457,-0.03541421816527562,0.024584057438511046,0.00010083648037955481,3.3076368790881543,2.0047854411814248,0.04311093708554157
9.477887,-0.148982,2.014191,-0.004737,0.019727,0.010306,0.398469,-0.544161,-0.318583,-0.666045,-2.594979,-78.170668,-116.111204,0.88,2.928137410280695,1.5655530002989821,-9.293830943661193,-0.03417876663586211,0.02296321393770037,8.517008799239099e-05,3.3203832444810466,2.019693298697849,0.04117650467246105
9.51201,-0.155193,1.942588,0.001438,0.011752,0.010846,0.398517,-0.544121,-0.31859,-0.666045,-2.597068,-78.166114,-116.10355,0.89,2.9379579467079195,1.5688415903720057,-9.312936931118987,-0.03285015368978406,0.021404388975858276,2.696347465735101e-05,3.3305946664680137,1.9487773102622576,0.039208177615151184
9.484866,-0.105028,1.927033,0.011604,0.004182,0.005489,0.398571,-0.544073,-0.318668,-0.666015,-2.579183,-78.16592,-116.109019,0.9,2.9453919350497504,1.5709501983641871,-9.322839000683022,-0.03149859676046183,0.019971618841659232,-6.770983061680565e-05,3.338145919038979,1.9298930187637344,0.037296537931232394
9.454157,-0.151215,1.981311,0.005935,0.000606,0.005651,0.398597,-0.544053,-0.318726,-0.665988,-2.56588,-78.16788,-116.11446,0.91,2.9504542687089432,1.5719820756408989,-9.323548686502729,-0.03019133967193779,0.018724197085250797,-0.0001889782723827578,3.3430985683762144,1.9870730371443321,0.0355267260025614
9.478901,-0.139972,2.04941,-0.010619,0.002569,-0.000646,0.398542,-0.544062,-0.318726,-0.666014,-2.547117,-78.169086,-116.138517,0.92,2.9533079906415325,1.572116079582681,-9.315644755541587,-0.028989324042030657,0.017713471378802734,-0.0003238668383061789,3.3456803576058407,2.0541843901860415,0.03397429714402455
9.575694,-0.117097,2.03695,-0.023208,0.010547,0.01258,0.398527,-0.544078,-0.318649,-0.666047,-2.568227,-78.165179,-116.125858,0.93,2.954240304846022,1.5715887060737037,-9.300189412783414,-0.027944213393611916,0.0169799678670733,-0.00045724209252155407,3.3462556447221923,2.04031296861756,0.03270179568900972
9.522089,-0.090992,1.921249,-0.016688,0.01408,0.018954,0.398549,-0.544085,-0.31856,-0.66607,-2.604094,-78.159182,-116.096032,0.9400000000000001,2.953633050199287,1.5706730768639496,-9.27862173409499,-0.027095918865914708,0.016551023170895882,-0.0005729471605410042,3.345289540475504,1.9234025226314433,0.0317561561849122
9.520301,-0.104376,1.889454,-0.015946,0.002814,0.018134,0.39856,-0.544122,-0.318507,-0.666059,-2.637142,-78.159552,-116.066923,0.9500000000000001,2.9519299445106246,1.5696564991054298,-9.252636649222964,-0.026470741752914487,0.016439075383357652,-0.0006550504855252835,3.343308529358667,1.892334739810058,0.03116684872661644
9.496652,-0.18045,1.989216,-0.015018,-0.009346,0.013911,0.398544,-0.544189,-0.318495,-0.66602,-2.66051,-78.166947,-116.046715,0.96,2.949602873284497,1.5688182053576616,-9.224058017857276,-0.02608021055899206,0.016640725080887483,-0.0006891195195123774,3.3408603190719894,1.9973839133116098,0.03094456333075669
9.469545,-0.16843,2.040039,-0.017119,-0.003041,0.016691,0.398538,-0.544244,-0.318454,-0.665998,-2.691063,-78.170701,-116.020844,0.97,2.94711933947136,1.568408783480461,-9.194714047693067,-0.025920653791263754,0.017136630848996342,-0.0006634203915478131,3.338475477397545,2.046980162683801,0.031080291768856523
9.423598,-0.133573,1.900903,-0.013983,-0.010284,0.017044,0.398527,-0.544322,-0.318432,-0.665952,-2.722991,-78.178623,-115.992479,0.98,2.9449129273779637,1.5686326208741894,-9.16632254921619,-0.02597351676744004,0.017892256420336115,-0.0005699384785943049,3.3366331007631747,1.9055901872485594,0.03154490835220369
9.488431,-0.168574,1.908129,-0.002938,-0.013466,0.012766,0.398529,-0.544377,-0.31847,-0.665886,-2.736091,-78.188446,-115.976139,0.99,2.943358288133263,1.5696344195479748,-9.140392375878665,-0.026206400664699456,0.018859441339074117,-0.0004051164181065474,3.3357323368868315,1.915560877162874,0.0322895971286877
9.506343,-0.166638,1.995807,0.007567,-0.027263,0.006051,0.398522,-0.544444,-0.318594,-0.665777,-2.726232,-78.206263,-115.976075,1.0,2.9427517547190734,1.5714905017191763,-9.118145940007231,-0.026574772607978622,0.01997872445231858,-0.00017021955589597489,3.3360710854080695,2.0027515583049738,0.03324751035197452
9.546221,-0.138526,2.017887,0.004053,-0.027097,0.008909,0.398509,-0.544525,-0.318692,-0.665671,-2.726568,-78.223992,-115.968684,1.01,2.9432982736746283,1.574205248444616,-9.100466019376755,-0.027024265244541615,0.02118230868221367,0.00012873368418867844,3.337832663877358,2.022636249414363,0.034336826957035056
9.584423,-0.121855,2.007549,0.001846,-0.023148,0.007929,0.398491,-0.544599,-0.318774,-0.665582,-2.726428,-78.239519,-115.963766,1.02,2.945104924643365,1.5777126308239975,-9.08786829156189,-0.027493453447713093,0.022397516479068336,0.00048149829136451825,3.3410806878344292,2.01124380133936,0.03546506122250872
9.577789,-0.093895,1.959526,0.003685,-0.017617,0.00293,0.398473,-0.54464,-0.318869,-0.665515,-2.709298,-78.251985,-115.974431,1.03,2.9481809064122717,1.581882438026088,-9.080499282431104,-0.027916966805586446,0.0235505497784245,0.0008745575375953304,3.3457619019693023,1.9617743029464425,0.03653423437512863
9.586978,-0.073905,1.969112,0.012181,-0.010631,-0.000983,0.398482,-0.54463,-0.318994,-0.665457,-2.675554,-78.260462,-115.995973,1.04,2.9524435139391283,1.5865305092505173,-9.078157820682533,-0.028228772666547403,0.02457033936521178,0.0012924241755993525,3.351716240940443,1.9704984185654653,0.03744643565188766
9.63194,-0.08449,2.006211,0.013936,-0.010713,-0.002412,0.398485,-0.544619,-0.319124,-0.665402,-2.636869,-78.269116,-116.022652,1.05,2.9577293284947084,1.5914320626602918,-9.080336761323064,-0.028365449582223475,0.02539225059169853,0.001719157205520825,3.358693018229107,2.0079893268194926,0.03810932460186838
9.601639,-0.092903,1.991788,0.013357,-0.004776,0.000461,0.398516,-0.544588,-0.319241,-0.665353,-2.605093,-78.274145,-116.040672,1.06,2.963809601361802,1.596337095281111,-9.086280750745773,-0.028269269003382367,0.025961410102327533,0.0021399281773176178,3.3663718563009257,1.9939534609295675,0.03844119765422127
9.653734,-0.095048,2.007792,0.013357,-0.004776,0.000461,0.398536,-0.544562,-0.319349,-0.66531,-2.573845,-78.27932,-116.060094,1.07,2.9704086339622213,1.6009867983421158,-9.095055185890494,-0.02789091708117068,0.0262354352585214,0.0025424557904569394,3.3743867859483814,2.010040506449559,0.03837532280358348
9.571296,-0.101429,1.977564,0.006711,0.002634,0.002967,0.398555,-0.544533,-0.319409,-0.665294,-2.55391,-78.280223,-116.07259,1.08,2.9772238465220933,1.6051299742859704,-9.105621263433305,-0.027191718860434616,0.02618638544174557,0.0029181352690891916,3.3823518543538738,1.9801634316735073,0.03786333147700136
9.585537,-0.121354,2.002251,0.006711,0.002634,0.002967,0.398577,-0.5445,-0.319474,-0.665276,-2.532451,-78.281089,-116.085903,1.09,2.983946190099456,1.6085385333448303,-9.116912088239955,-0.026145270868586347,0.02580181023292654,0.003262718583787363,3.3898865878763846,2.005925188115698,0.03687755323560247
9.542392,-0.099138,1.997006,0.005433,0.003287,0.001355,0.398581,-0.544473,-0.319525,-0.665271,-2.509211,-78.281747,-116.103874,1.1,2.990279601805413,1.611021270879688,-9.127905163406965,-0.024738438822977403,0.025084838692044795,0.0035764493073320606,3.396639756023642,1.9994652552820218,0.03541229274209761
9.562186,-0.121628,1.967571,0.007244,0.004383,0.001807,0.398604,-0.544432,-0.319591,-0.66526,-2.48403,-78.28164,-116.120676,1.11,2.995958334117632,1.6124352675715892,-9.137687159357144,-0.02297172730140109,0.024053329747886966,0.0038636164576946776,3.402310072858963,1.9713267132631769,0.03348418222538352
9.540571,-0.110493,1.965157,0.00695,0.002919,0.001447,0.398601,-0.54441,-0.319639,-0.665256,-2.461388,-78.282633,-116.139054,1.12,3.000761199002656,1.6126944030237405,-9.145507597373845,-0.020859070873793992,0.022738178191203186,0.004131558757080077,3.40666273807431,1.968260840868913,0.0311319026552518
9.531588,-0.130376,1.954576,0.004155,0.00394,-0.000257,0.398608,-0.544373,-0.319701,-0.665252,-2.432333,-78.282827,-116.16162,1.1300000000000001,3.004522037178491,1.611774623719894,-9.150818928347542,-0.018427126593645933,0.021180935930880485,0.004389216972260421,3.409541040896648,1.9589194064973678,0.028415774968068283
9.504617,-0.0797,1.938537,0.002904,0.001338,0.005466,0.398618,-0.544362,-0.319741,-0.665236,-2.421555,-78.284458,-116.167796,1.1400000000000001,3.0071360255966715,1.6097157568135279,-9.153301393462748,-0.015714163665217253,0.019430956868385182,0.004645389411794026,3.410872600109112,1.9401746803751976,0.02541803822692632
9.540409,-0.110784,1.965932,0.003861,0.002476,-0.000617,0.39862,-0.54433,-0.319806,-0.66523,-2.39184,-78.285496,-116.191208,1.1500000000000001,3.008561743102156,1.606619812095532,-9.152871982299143,-0.012768647779172049,0.0175423008144648,0.004906886680525465,3.4106701662101195,1.969050970208745,0.022245184217471563
9.531488,-0.130836,1.955032,0.005349,-0.002325,0.004928,0.398629,-0.544325,-0.319862,-0.665202,-2.378056,-78.28924,-116.199084,1.16,3.0088191986262762,1.6026458660656475,-9.149677722837243,-0.00964760740917799,0.01557063509480678,0.005176800777649549,3.409027242783398,1.9594050576437738,0.019034712298028767
9.578146,-0.093643,1.957791,0.006067,-0.001472,0.000366,0.398634,-0.544303,-0.31994,-0.665179,-2.350229,-78.292511,-116.219277,1.17,3.0079842673516555,1.5980017742982462,-9.14407441451561,-0.006414851204809559,0.013570352925075394,0.005453097993529641,3.4061090738987527,1.9600292373150967,0.015970005391921005
9.585417,-0.084808,1.936037,0.005028,-0.000536,-0.002767,0.398634,-0.544272,-0.320025,-0.665164,-2.314241,-78.295228,-116.247317,1.18,3.006180165251746,1.5929331105085207,-9.136592714495887,-0.003139084204735008,0.011592089193064047,0.005727715597249749,3.4021397796838633,1.9378936147872,0.01330552920658728
9.590126,-0.087799,2.101898,-0.0158,0.00844,7.3e-05,0.398594,-0.54426,-0.320011,-0.665204,-2.297007,-78.292827,-116.269486,1.19,3.0035667172570104,1.5877098799820712,-9.12789417204952,0.00010804939920160724,0.009680762754891293,0.005986292639566576,3.3973865967838774,2.103730939736591,0.011382642125433235
9.581184,-0.0714,2.024328,-0.021408,0.014915,0.005709,0.398568,-0.54425,-0.319947,-0.66526,-2.299365,-78.286607,-116.275402,1.2,3.0003282420318143,1.5826116947572182,-9.11872034147487,0.0032539837633093344,0.0078742162913243,0.006208601053026457,3.3921422930525824,2.0255867820421813,0.010542220808258524
9.572209,-0.055585,1.946998,-0.02085,0.013409,0.011885,0.398561,-0.54425,-0.319874,-0.665298,-2.317099,-78.281088,-116.264816,1.21,2.996660893054017,1.5779122185684509,-9.109838458833861,0.006227301990627751,0.006202466686569875,0.00636967193864904,3.386706877996221,1.947791288672634,0.010854612092861654
9.552428,-0.108014,1.893972,-0.002271,0.016067,0.009774,0.398608,-0.5442,-0.319866,-0.665315,-2.318609,-78.274039,-116.259274,1.22,2.9927602674341283,1.573863780617312,-9.101987315492051,0.008959848220459874,0.00468752683035557,0.006441541961302181,3.3813697251663286,1.8970495409925383,0.0119893807495716
9.575168,-0.145448,1.998013,0.010038,0.00336,0.003514,0.398642,-0.544159,-0.319938,-0.665293,-2.296666,-78.274467,-116.271135,1.23,2.9888100254666945,1.5706831069627558,-9.09582688232372,0.011388854508887858,0.0033437189728640782,0.0063954846277338075,3.3763931629519095,2.003300044644586,0.013482903515848726
9.531791,-0.160423,2.0604,0.005936,0.0006,0.00565,0.398662,-0.544144,-0.319991,-0.665268,-2.284649,-78.276485,-116.276354,1.24,2.9849721583565216,1.568539109966441,-9.091894924645077,0.01345903243980525,0.0021783740265955754,0.006204547251411001,3.3719984765206976,2.066635840908843,0.014979561883128227
9.569424,-0.143583,2.052805,-0.007125,0.006843,0.005545,0.398662,-0.544129,-0.319994,-0.665279,-2.277756,-78.274871,-116.282887,1.25,2.981379402070352,1.5675435887820741,-9.09057330956515,0.015124553130298384,0.0011928015244215243,0.0058461887503172515,3.3683550943778413,2.0578203142922855,0.01625893003159239
9.563896,-0.104619,2.040091,-0.014414,0.010149,0.005446,0.398624,-0.544133,-0.319943,-0.665323,-2.277686,-78.271651,-116.291172,1.26,2.9781301302664174,1.567745513907339,-9.092065976552082,0.016350817379461074,0.00038341884329206726,0.005304803998036298,3.365573512668718,2.0427717502065668,0.017194103188112476
9.617623,-0.059558,2.022251,-0.01676,0.007306,0.006154,0.3986,-0.544137,-0.319911,-0.665349,-2.277948,-78.269758,-116.296036,1.27,2.975285885516911,1.5691293058749685,-9.096389672246739,0.01711590693418238,-0.00025705931244477244,0.00457392380006139,3.363702257797472,2.023127841330102,0.017718383916104627
9.579756,-0.078012,2.030831,-0.015724,0.006368,0.009288,0.398588,-0.544148,-0.319875,-0.665365,-2.287292,-78.268327,-116.291242,1.28,2.9728715445463307,1.5716172075145223,-9.10337761302833,0.01741161187545246,-0.0007384546770509542,0.003657894441795513,3.362728931586522,2.032328817564963,0.017807013650771825
9.536521,-0.056742,2.026047,-0.009811,0.010223,0.007605,0.398593,-0.54413,-0.319856,-0.665385,-2.287252,-78.264732,-116.292348,1.29,2.9708779696031358,1.5750755372605973,-9.112695315163837,0.017243947316208128,-0.001072050693462433,0.002572869184172188,3.362585145145028,2.0268414098722674,0.01746776080590691
9.534657,-0.069119,1.994471,-0.009997,0.011117,0.011008,0.398614,-0.544113,-0.31983,-0.6654,-2.296426,-78.26048,-116.283485,1.3,2.969266870004349,1.5793243361697296,-9.123867004257054,0.016633100988039225,-0.0012696632475565038,0.0013469889323507072,3.36315493311316,1.995668310617273,0.01673578418910756
9.534482,-0.070161,1.995272,-0.010695,0.005833,0.006522,0.398605,-0.54411,-0.31982,-0.665412,-2.294391,-78.259422,-116.287145,1.31,2.9679774748906897,1.5841497048041782,-9.136310351399043,0.015612786975955287,-0.0013428966154114303,1.969047033071375e-05,3.3642860429353623,1.9965051765284756,0.01567044594741529
9.496566,-0.088307,2.004036,-0.015397,0.012269,0.004198,0.398578,-0.544099,-0.319778,-0.665458,-2.290034,-78.254835,-116.297779,1.32,2.9669344966686544,1.5893179739129206,-9.149376825775315,0.014229015896044812,-0.0013026092427598625,-0.0013598469382362234,3.365803311205982,2.0059806618073366,0.01435307869081229
9.53777,-0.122754,1.977986,-0.014951,0.008403,0.006608,0.398562,-0.544096,-0.319749,-0.665483,-2.290394,-78.252304,-116.301484,1.33,2.966056754491579,1.594590762320781,-9.16239471663562,0.01253832563909914,-0.001158597714707934,-0.002735031102890422,3.3675231803424737,1.9817914019169627,0.012885354229915267
9.575341,-0.10639,1.970821,-0.01852,0.007393,0.007583,0.398537,-0.544107,-0.319704,-0.665511,-2.296667,-78.250339,-116.301733,1.34,2.965265749346669,1.59973994137095,-9.174711853689308,0.01060554766890567,-0.0009194906984305816,-0.004044809961111715,3.3692682950851505,1.9736905142754777,0.01138787039456629
9.567902,-0.11635,1.993105,-0.019243,0.006537,0.012146,0.398525,-0.544128,-0.31965,-0.665527,-2.314932,-78.248749,-116.289661,1.35,2.964493460603494,1.6045615433654008,-9.18573522515795,0.008501210245800866,-0.0005928293449752931,-0.005227043471973328,3.3708810753878633,1.996498150143145,0.009997199894644123
9.605467,-0.100511,1.985974,-0.024775,0.009763,0.01062,0.398482,-0.544159,-0.319557,-0.665572,-2.334619,-78.245548,-116.28263,1.36,2.963688686259304,1.6088877197686595,-9.194965033965472,0.006298700455396318,-0.00018529833892710977,-0.006222057023955963,3.3722352118266894,1.9885158258854767,0.008855617229226806
9.585355,-0.079601,2.016774,-0.024481,0.011227,0.010983,0.39846,-0.544173,-0.319479,-0.665612,-2.352148,-78.241298,-116.274374,1.37,2.9628213811579553,1.6125959732897774,-9.202021219595585,0.004071320545662993,0.00029693641864017437,-0.006976126764170474,3.373244181751024,2.0183442932951254,0.008082707891049142
9.644336,-0.074868,2.012987,-0.023116,0.016189,0.00903,0.398446,-0.544162,-0.319403,-0.665665,-2.363089,-78.23419,-116.271429,1.3800000000000001,2.9618846487580006,1.6156150563888714,-9.2066610757872,0.0018893803468355281,0.0008478315153968704,-0.007444654340233048,3.3738661329369193,2.014378782551335,0.007727318721203315
9.592065,-0.07359,1.997868,-0.01862,0.013903,0.007424,0.398432,-0.544149,-0.319349,-0.66571,-2.367161,-78.228492,-116.273489,1.3900000000000001,2.960894287292715,1.6179271457446882,-9.208787273300313,-0.0001825336586447343,0.0014610595919849294,-0.007594812824746032,3.3741048041606807,1.9992228573933422,0.007736226180173134
9.591707,-0.074585,1.99955,-0.015147,0.021422,0.00629,0.398437,-0.544104,-0.319293,-0.665771,-2.366286,-78.218499,-116.27858,1.4000000000000001,2.959886045893176,1.6195661619271113,-9.208446302678974,-0.002087980898733913,0.0021296389008537185,-0.007407484432628545,3.3740065141508624,2.000940560017963,0.007985352321666299
9.553543,-0.092729,2.009324,-0.010651,0.019136,0.004684,0.398444,-0.544054,-0.319262,-0.665822,-2.357686,-78.209871,-116.288921,1.41,2.95891097477584,1.620612392231079,-9.205818027210222,-0.003780665890862913,0.0028456402887324468,-0.006878361301014707,3.3736536103313646,2.01146255357066,0.008348829703526612
9.553122,-0.093344,2.011296,-0.00982,0.022349,0.00389,0.398465,-0.543984,-0.319239,-0.665879,-2.345065,-78.199294,-116.301204,1.42,2.9580294266711147,1.621183868598614,-9.201197623825987,-0.005225923323875908,0.00360000592024921,-0.006018140287886251,3.373155084613901,2.0134608766877,0.008745760672322286
9.566886,-0.113839,2.037698,-0.012169,0.019507,0.004592,0.398468,-0.543935,-0.319202,-0.665934,-2.337074,-78.190454,-116.311812,1.43,2.9573043664905834,1.621425220009816,-9.19497163954757,-0.006401628967636541,0.004382504362492507,-0.004851808292228204,3.372635299012947,2.0408754144055434,0.009150259101855178
9.550716,-0.105874,1.982484,-0.015498,0.018784,0.004045,0.398463,-0.543893,-0.31916,-0.665992,-2.330038,-78.181983,-116.322817,1.44,2.956794668381543,1.6214949265402125,-9.187590167658273,-0.007298510911830473,0.005181834467598788,-0.0034170819089266425,3.3722218947995057,1.9853090726967426,0.009581029107147991
9.573418,-0.106748,2.019759,-0.018722,0.020414,0.007264,0.398458,-0.543859,-0.319093,-0.666055,-2.333032,-78.172562,-116.326039,1.45,2.9565490315891196,1.6215520243017219,-9.179537236457032,-0.007919870982014384,0.005985876483813532,-0.001762128906879975,3.372033977246904,2.0225779474682803,0.010082666905917668
9.529964,-0.085429,2.016153,-0.018429,0.021878,0.007629,0.398441,-0.543833,-0.319004,-0.666129,-2.339839,-78.162511,-116.328667,1.46,2.956601044929716,1.6217433330813007,-9.171301414297899,-0.008280758951018628,0.006782074225032955,5.724741415172491e-05,3.3721715818257434,2.0179620991113785,0.010703773954319035
9.588802,-0.080301,2.013214,-0.019999,0.021072,0.005653,0.398429,-0.543796,-0.318935,-0.666199,-2.339093,-78.15275,-116.336458,1.47,2.956965792697359,1.6221922016003112,-9.16334840031746,-0.008406669460401422,0.007557918554447609,0.0019807430066285225,3.3727072565099965,2.014814845189751,0.011476827399173396
9.536459,-0.078577,1.998502,-0.012172,0.019508,0.004598,0.398429,-0.543751,-0.318894,-0.666255,-2.332825,-78.143943,-116.346017,1.48,2.9576382386831495,1.6229896007061375,-9.156097037301997,-0.008331851486077665,0.008301491638988315,0.003946773720245012,3.37368036347859,2.0000461467008703,0.012406108794342573
9.52871,-0.087901,2.021963,-0.018292,0.019814,0.002343,0.398409,-0.54371,-0.318843,-0.666325,-2.322239,-78.134979,-116.362864,1.49,2.9585934618443694,1.624188163728233,-9.149899800507619,-0.008097332109602407,0.009002024937731543,0.005895556711363537,3.3750944377399485,2.023872762594032,0.01346702748232298
9.55875,-0.079741,2.037576,-0.020156,0.017545,2e-06,0.39836,-0.543684,-0.318784,-0.666403,-2.308431,-78.127505,-116.386322,1.5,2.9597886565423273,1.6257995032341852,-9.145028426154221,-0.007748760856496833,0.00965042255390066,0.007771857078712965,3.376917664988763,2.039135744097729,0.014614229802899394
9.544263,-0.06023,2.014759,-0.020451,0.016083,-0.000362,0.398319,-0.543656,-0.318741,-0.666472,-2.29217,-78.120738,-116.410234,1.51,2.961166661615932,1.6277948536764493,-9.141664976500326,-0.007334179226164115,0.010239705216893626,0.009527249563108273,3.3790862793839955,2.015659068637601,0.01579272718969471
9.552833,-0.040756,2.027397,-0.020158,0.017546,4e-06,0.398281,-0.543624,-0.318691,-0.666544,-2.277671,-78.113129,-116.432563,1.52,2.9626606566901375,1.630108826189543,-9.139898313321021,-0.006901813775645278,0.010765337579105907,0.011121798953741121,3.381510454208398,2.0278066098977487,0.016947623389526743
9.563595,-0.083473,1.987905,-0.016977,0.011472,0.002228,0.39825,-0.543608,-0.318661,-0.66659,-2.267002,-78.108941,-116.448726,1.53,2.9641995724178027,1.6326458361049307,-9.139725676894848,-0.006497981643148382,0.011225411062376124,0.012525117872943655,3.384082081048368,1.989656762045655,0.018030867884967217
9.518145,-0.110256,2.018598,-0.020595,0.018147,0.00493,0.398237,-0.543577,-0.318605,-0.66665,-2.264775,-78.100764,-116.457001,1.54,2.965713712860585,1.6352885905991796,-9.14105884640471,-0.006165185857523578,0.011620664775500554,0.013716811212976226,3.3866837173248356,2.021606853752727,0.019005269699080788
9.557159,-0.082329,2.044921,-0.019819,0.011326,-0.001362,0.398186,-0.543561,-0.318576,-0.666707,-2.24602,-78.096739,-116.483093,1.55,2.9671400867954074,1.6379079112829265,-9.14373419080627,-0.005940464951124739,0.01195433738396791,0.014686358843489298,3.3891979317401124,2.0465776214163,0.019846522169010127
9.533913,-0.082791,2.010443,-0.030242,0.00976,0.001907,0.398106,-0.543584,-0.318495,-0.666775,-2.244166,-78.093649,-116.499987,1.56,2.968426988963354,1.640373114827384,-9.147525805346763,-0.005854047652790796,0.012231853322558536,0.015432519933155388,3.391516289899628,2.0121469642970915,0.020543874539944263
9.555208,-0.094875,2.014206,-0.028676,0.010565,0.003887,0.398047,-0.543597,-0.318423,-0.666834,-2.244837,-78.089941,-116.511412,1.57,2.969537457566506,1.642562178411944,-9.152160863294737,-0.005928348954188495,0.012460357762324062,0.01596236222249774,3.3935472918231064,2.016439207132464,0.02109983044031303
9.586901,-0.075926,2.061819,-0.026378,0.012234,0.001308,0.397989,-0.543596,-0.318362,-0.666898,-2.237478,-78.08532,-116.529816,1.58,2.97045135373433,1.644370968653392,-9.157336287792393,-0.006177328887379236,0.012648126254754985,0.01629002812320405,3.3952226918793134,2.0632165049351947,0.021529038673239714
9.56884,-0.11627,2.040818,-0.021533,0.012585,0.001955,0.397947,-0.543585,-0.318315,-0.666955,-2.228612,-78.080498,-116.546805,1.59,2.9711659512024493,1.6457209069349414,-9.162735858527745,-0.0066062204527966234,0.012803886165747793,0.01643534828442716,3.396501790535009,2.0441273986774893,0.02185640233082286
9.57596,-0.107827,2.02049,-0.014193,0.01372,-0.003384,0.397905,-0.543551,-0.3183,-0.667015,-2.202223,-78.075181,-116.578272,1.6,2.97169507407309,1.6465645757392604,-9.168046909188119,-0.007211618980671441,0.01293609647260232,0.016422404755735198,3.397373473044975,2.0233651430300466,0.02211437130537626
9.545296,-0.116583,2.007825,-0.019528,0.012792,-0.000991,0.397858,-0.54353,-0.318268,-0.667075,-2.184235,-78.070302,-116.603412,1.61,2.9720669592987874,1.6468889329366483,-9.172975844577945,-0.007981912460136836,0.013052238807944325,0.01627813230366141,3.397855966338884,2.0112068084893706,0.02233941484722464
9.523524,-0.105733,2.006279,-0.014633,0.014316,0.001543,0.397838,-0.543498,-0.318243,-0.667126,-2.170453,-78.064453,-116.621173,1.62,2.972321133252794,1.6467159834395229,-9.177261810571407,-0.008898021561187595,0.01315817476806342,0.016031028922008115,3.3979944745829664,2.0090631879385974,0.02256781423240897
9.537369,-0.126058,2.031861,-0.019823,0.011331,-0.001357,0.397787,-0.543483,-0.318213,-0.667183,-2.151827,-78.060417,-116.647139,1.6300000000000001,2.9725046681246274,1.6461009454565958,-9.180687980993586,-0.009934409506395276,0.013257621872636358,0.0157100253995026,3.3978570194544386,2.0357676052744824,0.022831161337338483
9.531946,-0.086648,2.019588,-0.017278,0.010011,0.001869,0.397741,-0.543479,-0.318175,-0.667231,-2.142337,-78.057192,-116.664394,1.6400000000000001,2.9726682176554555,1.6451281243602958,-9.183090072667442,-0.011060315569920464,0.013351793031697645,0.015343539647264502,3.3975289370099686,2.021445909651802,0.023152217314432164
9.545821,-0.10718,2.044989,-0.018502,0.011844,0.002143,0.397706,-0.543465,-0.318139,-0.66728,-2.1324,-78.052784,-116.680706,1.6500000000000001,2.972862220140335,1.6439048550627078,-9.184361849886566,-0.012241161349623327,0.0134392324214492,0.014958716521650638,3.397106555943817,2.047795781449166,0.023541924289240825
9.56708,-0.118887,2.048903,-0.015223,0.011392,0.000811,0.397679,-0.543441,-0.318122,-0.667324,-2.116763,-78.048597,-116.700333,1.6600000000000001,2.973133601876572,1.6425539843978987,-9.18445752148309,-0.013440075393569494,0.013515865453552307,0.01458083176095329,3.3966905961934435,2.0523492934142573,0.023998227025857247
9.590552,-0.081904,2.017982,-0.013706,0.011022,0.000905,0.397652,-0.543418,-0.318107,-0.667366,-2.100831,-78.044685,-116.719963,1.67,2.9735232250660495,1.6412054370841718,-9.18339106318337,-0.014619478659059054,0.013575263650151761,0.01423282330777299,3.396379786879236,2.0196434382187367,0.024506941848058093
9.55253,-0.099654,2.026641,-0.015224,0.011393,0.000812,0.397617,-0.5434,-0.318081,-0.667414,-2.087016,-78.040601,-116.739307,1.68,2.9740642150538523,1.6399874462136246,-9.181232617983136,-0.01574267045535695,0.013609108388309862,0.013934907343051644,3.3962651220130287,2.0290896142351627,0.02504438353903264
9.552301,-0.100276,2.027689,-0.017476,0.010894,0.005277,0.397594,-0.543392,-0.318043,-0.667453,-2.085094,-78.036669,-116.746825,1.69,2.974781189649471,1.6390180356980588,-9.178102244099438,-0.016775352400804085,0.013607822135405793,0.013704240183240088,3.3964250687503537,2.030166977590021,0.025581076412847358
9.537994,-0.081048,2.004342,-0.015714,0.010813,0.003851,0.397561,-0.543385,-0.318003,-0.667497,-2.079973,-78.032915,-116.758585,1.7,2.9756903133067008,1.6383973182100167,-9.174161397462694,-0.01768702745250331,0.013561323123869871,0.013554598945676432,3.3969219321357835,2.005979967813238,0.0260857734704905
9.530395,-0.090458,2.026727,-0.013267,0.007147,0.003302,0.397537,-0.543378,-0.317991,-0.667523,-2.070681,-78.031169,-116.771173,1.71,2.9768000211835695,1.6382011155613938,-9.169602650095188,-0.0184522133173056,0.013459850243424323,0.013496070396132823,3.397799473356998,2.028744681396109,0.02652914738584964
9.530224,-0.090917,2.027511,-0.014001,0.009561,0.000539,0.397519,-0.543352,-0.31799,-0.667555,-2.05389,-78.027929,-116.789572,1.72,2.978112206714202,1.638476317253151,-9.164638244741381,-0.019051415297214883,0.013294799837848007,0.013534755254761482,3.3990817815962564,2.029548411841905,0.026886757472065877
9.55152,-0.102491,2.031253,-0.015519,0.009932,0.000446,0.397484,-0.543336,-0.317973,-0.667598,-2.037918,-78.024645,-116.810306,1.73,2.9796236413984567,1.6392382692510892,-9.159488152447521,-0.01947181306661323,0.013059515395167913,0.013672511497027381,3.400773316138243,2.03383705224632,0.027141113040811415
9.538725,-0.071874,2.040442,-0.017576,0.008551,0.001504,0.397446,-0.54333,-0.317948,-0.667637,-2.026945,-78.022107,-116.827072,1.74,2.981327395650407,1.640470336866097,-9.154368318467423,-0.019707628680588264,0.01274997469662159,0.013906772456861559,3.4028599686430243,2.041707478371963,0.027282793169750037
9.52225,-0.100979,2.05157,-0.019388,0.00746,0.001042,0.397398,-0.54333,-0.317921,-0.667678,-2.01505,-78.020226,-116.845906,1.75,2.9832140533273894,1.6421256260337789,-9.149479746813785,-0.019760158606901963,0.012365326175599997,0.014230481995994311,3.405310949039289,2.0540536077086693,0.02731065318583974
9.54585,-0.064133,2.020275,-0.019928,0.005707,0.002193,0.397349,-0.54334,-0.31789,-0.667713,-2.00765,-78.019328,-116.860809,1.76,2.9852725583737647,1.6441306919626681,-9.144998989794377,-0.019637469985381975,0.011908236041747,0.014632188632074402,3.4080812754441587,2.0212926847228236,0.027231181708059375
9.538294,-0.073387,2.042399,-0.016108,0.007009,-0.000289,0.397305,-0.543333,-0.317879,-0.667751,-1.990335,-78.01773,-116.883263,1.77,2.987490596403931,1.6463909280740614,-9.141070488851385,-0.0193537797563026,0.01138501926530735,0.015096333438093674,3.4111146494432703,2.0437170369133786,0.027057101430142012
9.541872,-0.013964,2.040965,-0.021004,0.00549,-0.002826,0.397246,-0.543333,-0.317867,-0.667791,-1.969646,-78.016944,-116.910523,1.78,2.9898544899260155,1.648797222956327,-9.137801072745294,-0.018928553559565364,0.010805540257935405,0.015603753946995083,3.414346519227252,2.0410127693184577,0.02680535352054813
9.539459,-0.062757,2.076426,-0.021395,0.010539,-0.00333,0.397183,-0.54332,-0.317839,-0.667853,-1.946844,-78.013381,-116.941683,1.79,2.9923486624176525,1.6512334052070694,-9.135256773110719,-0.018385377824671947,0.010182882693854952,0.01613241000280019,3.417707166499852,2.0773741537154544,0.026494676261679388
9.530488,-0.082692,2.065656,-0.017871,-0.001764,-0.002504,0.397115,-0.543342,-0.317845,-0.667872,-1.926191,-78.016811,-116.968534,1.8,2.9949547911912684,1.6535839671886463,-9.133461977327412,-0.017750671642979707,0.009532801931920248,0.01665831924278561,3.4211246890201,2.0673104936607856,0.026143072819480643
9.512132,-0.095479,1.942929,0.001128,-0.004175,-0.004053,0.397087,-0.543333,-0.317924,-0.667859,-1.889859,-78.021681,-117.000332,1.81,2.997650811690994,1.6557415673247247,-9.13240081305964,-0.01705231366407256,0.00887298715780155,0.017156671137001183,3.4245277815486634,1.9452735896222926,0.02576553253677549
9.515178,-0.072636,2.007686,0.004217,-0.009308,-0.012939,0.397029,-0.543322,-0.318043,-0.667846,-1.829505,-78.02967,-117.055398,1.82,3.000409952185556,1.6576138527865847,-9.132020552600833,-0.016318262794426584,0.008222172649334883,0.01760307053038194,3.4278482414080287,2.008999517942202,0.02537238490566148
9.507181,-0.117553,2.095694,-0.007825,-0.009559,-0.020867,0.396912,-0.543321,-0.318148,-0.667866,-1.753238,-78.037911,-117.133259,1.83,3.0031999704727794,1.659129212713077,-9.132236739114603,-0.015575249559661629,0.00759914737836251,0.017974845544123763,3.43102314290149,2.0989883395209703,0.02496859051005722
9.575509,-0.090283,2.101509,-0.026682,-0.003639,-0.013651,0.396769,-0.543356,-0.318149,-0.667922,-1.708433,-78.042721,-117.19183,1.84,3.0059827401523713,1.6602411542335616,-9.132939669017889,-0.014847607232569221,0.007021718417108016,0.01825234126987355,3.433996640112618,2.103447431520455,0.024554102139840602
9.573431,-0.074702,1.968399,-0.039715,-0.002789,0.002776,0.396656,-0.543434,-0.31807,-0.667964,-1.713713,-78.046658,-117.205009,1.85,3.0087143001881396,1.6609310770802967,-9.134001813367984,-0.014156298211808431,0.006505685358560909,0.018420110631139814,3.4367213711570685,1.9698159843003102,0.024125198376586963
9.508977,-0.042132,1.959729,-0.031784,-0.002012,0.0055,0.396573,-0.543498,-0.318007,-0.66799,-1.722175,-78.050093,-117.21048,1.86,3.0113454431805446,1.6612093032948598,-9.13528572765519,-0.01351817300763125,0.006063879812622652,0.018467908854764684,3.439159450725951,1.9601818433158185,0.023676471386464632
9.492863,-0.071768,1.969144,-0.034721,-0.01663,0.0018,0.396448,-0.54361,-0.317975,-0.667989,-1.72307,-78.061974,-117.225217,1.87,3.013822878796919,1.6611143027935482,-9.136651989474819,-0.012945479614664843,0.005705317060023789,0.018391401921857516,3.4412830560279466,1.9704514047699833,0.023203011654964228
9.490938,-0.121243,2.002353,-0.036681,-0.012378,-0.00068,0.396325,-0.543703,-0.317941,-0.668002,-1.717628,-78.071331,-117.246127,1.8800000000000001,3.0160909692540905,1.6607101508194373,-9.137966724160957,-0.012445623651205918,0.0054344990354833495,0.01819251665201011,3.4430746346617,2.0060202894432546,0.022702312436573304
9.483771,-0.130912,2.022651,-0.033843,-0.012243,0.002914,0.396213,-0.543801,-0.3179,-0.668009,-1.720656,-78.08068,-117.258169,1.8900000000000001,3.0180939880434816,1.6600823566828142,-9.139108331782051,-0.012021166669571147,0.005250902542134702,0.017879392645240404,3.444526781959138,2.026883079890155,0.022175506915677972
9.513013,-0.13412,2.002301,-0.029239,-0.021036,0.001429,0.396083,-0.543925,-0.317883,-0.667993,-1.719982,-78.095221,-117.273508,1.9000000000000001,3.0197787951599433,1.6593323014379255,-9.13997310706433,-0.01167004136249386,0.005148685687904973,0.017465940641607135,3.445641835463013,2.0067878485283392,0.021627711673020307
9.595723,-0.128726,2.030938,-0.013273,-0.022701,-0.000318,0.396,-0.544011,-0.31794,-0.667945,-1.703255,-78.110614,-117.293692,1.9100000000000001,3.021097755794421,1.6585706023054427,-9.140479530937489,-0.011385956250754725,0.005116647080958919,0.016971059229157086,3.4464312111077926,2.0350134011647194,0.02106743763381641
9.605088,-0.10876,2.039909,-0.007789,-0.023809,-0.008007,0.395898,-0.544083,-0.318032,-0.667903,-1.664122,-78.126845,-117.33478,1.92,3.022011672384142,1.6579097795093949,-9.140571094017508,-0.011158957095122272,0.0051384716293632025,0.01641760150453251,3.4469144731221415,2.042806272234595,0.020505215270710482
9.61448,-0.088291,2.04879,-0.009357,-0.024606,-0.009987,0.39579,-0.544153,-0.318132,-0.667862,-1.618798,-78.143483,-117.381891,1.93,3.0224924743555546,1.6574566402448527,-9.140217584833504,-0.010976107034805022,0.005193289066274264,0.01583120625449503,3.4471181110933404,2.0506915333079716,0.019951748505776197
9.584606,-0.096084,2.032413,-0.012689,-0.025324,-0.010539,0.39567,-0.544231,-0.318223,-0.667826,-1.574142,-78.160515,-117.430313,1.94,3.022525428590661,1.657304819753923,-9.139414847783023,-0.010822242632324374,0.005256553982784295,0.015239109521412835,3.447074010237776,2.0346829575206553,0.019416043736365036
9.588719,-0.035577,2.028458,-0.011026,-0.018891,-0.012092,0.395559,-0.544282,-0.318312,-0.667808,-1.52334,-78.173897,-117.483991,1.95,3.0221106924087606,1.6575279330313042,-9.138183100912963,-0.01068075954665028,0.005301229563494685,0.014669032050264676,3.446817646170216,2.028769967416957,0.018904024985963264
9.580223,-0.054485,2.015395,-0.009752,-0.019555,-0.010482,0.395452,-0.544337,-0.318398,-0.667785,-1.476766,-78.187649,-117.533414,1.96,3.0212641114170578,1.658173790345739,-9.136564006778224,-0.010534380847920606,0.005299224402703672,0.014148201178169452,3.4463860999496645,2.0161313501977,0.018418104020153703
9.576884,-0.002922,2.03325,-0.01279,-0.018813,-0.010663,0.395341,-0.544394,-0.318477,-0.667767,-1.430658,-78.200947,-117.583325,1.97,3.0200172430894376,1.6592601093744312,-9.134616799465308,-0.010365864589854291,0.00522299780034495,0.013702521539557241,3.4458160512596687,2.033252099613818,0.01795800521382131
9.589844,-0.033258,2.023173,-0.007302,-0.014374,-0.007388,0.395267,-0.544428,-0.318558,-0.667745,-1.390364,-78.211587,-117.623592,1.98,3.018416642744702,1.6607721074855708,-9.13241386209396,-0.010158616246462011,0.005047220049316541,0.013355868728637966,3.4451419451454046,2.0234463379326373,0.01752287487159896
9.588598,-0.043369,1.989122,-0.008091,-0.013121,-0.012034,0.395173,-0.544453,-0.318646,-0.667738,-1.33723,-78.221627,-117.677927,1.99,3.0165224708656164,1.6626622714656611,-9.130036194357904,-0.009897185804351597,0.004750356535772073,0.013129453524727911,3.4443945253400567,1.9895947328652135,0.01711440106812977
9.574679,-0.02227,1.963765,-0.001135,-0.01022,-0.010561,0.395114,-0.544456,-0.318749,-0.667721,-1.28461,-78.229901,-117.726916,2.0,3.014406471632245,1.6648524756240435,-9.1275691922411,-0.009567646856004957,0.004316042377173336,0.013041196918898823,3.4435998812013375,1.963891271971287,0.016740397403893187
9.581675,-0.05062,2.008582,-0.004852,-0.009194,-0.004295,0.395061,-0.544474,-0.318818,-0.667705,-1.250503,-78.237574,-117.759914,2.0100000000000002,3.012149346394203,1.6672384567675602,-9.125099082130635,-0.009157872857931473,0.003734129309959818,0.013105068177579096,3.442779074629637,2.009219757797539,0.016418074458490414
9.601787,-0.072428,1.977962,-0.014652,-0.003382,-0.005701,0.394981,-0.544495,-0.31884,-0.667724,-1.219516,-78.242001,-117.796711,2.02,3.0098375234285273,1.669696466465845,-9.12271022445593,-0.008657740326711136,0.0030013168451982607,0.013330365198528529,3.4419483156443382,1.979287621501231,0.016176000948818336
9.589213,-0.04117,1.986202,-0.007989,-0.001942,-0.0046,0.394931,-0.544495,-0.318885,-0.667733,-1.18588,-78.245517,-117.831064,2.0300000000000002,3.0075593262793894,1.6720917225644076,-9.120483351732094,-0.008059297288433478,0.0021213208897193237,0.013720951378536798,3.441119560514941,1.9866286401096709,0.016053559786934537
9.59657,-0.032036,1.964677,-0.010439,0.001722,-0.004037,0.394878,-0.544492,-0.318909,-0.667755,-1.156169,-78.246947,-117.86356,2.04,3.005400578953222,1.6742880928376336,-9.118494658259927,-0.007356936172817764,0.0011045791626855459,0.014274498490237954,3.4403013324111953,1.964938171959871,0.016096767132730696
9.571386,-0.080502,1.964028,-0.011857,0.004427,-0.000347,0.394842,-0.544485,-0.318917,-0.667779,-1.136081,-78.246759,-117.886337,2.05,3.003439758115201,1.6761582878780472,-9.11681553640695,-0.0065476034494317435,-3.246225963817194e-05,0.014981814321205721,3.439499525606794,1.9656771242470115,0.01635013532312183
9.558655,-0.049721,1.973008,-0.010044,0.005517,0.000114,0.394794,-0.544484,-0.318909,-0.667811,-1.118683,-78.246158,-117.908914,2.06,3.0017429000213496,1.677593742213976,-9.115512674079238,-0.005631064965830644,-0.0012683984044114154,0.01582635280551767,3.438717959028346,1.9736344002638888,0.01684610252510757
9.56743,-0.030243,1.984764,-0.011807,0.005593,0.001543,0.394766,-0.544476,-0.31891,-0.667834,-1.103712,-78.245279,-117.926436,2.07,3.0003585737291165,1.6785133411506126,-9.114648198417507,-0.004610228530045627,-0.0025781400843442087,0.016784010605216667,3.4379584941314243,1.9849944016910979,0.017595568345176425
9.579962,-0.061575,1.976725,-0.00725,0.004481,0.001813,0.394751,-0.544464,-0.318926,-0.667845,-1.088193,-78.245023,-117.941836,2.08,2.999313318000326,1.678870214382731,-9.114279571331487,-0.0034915065396285533,-0.003934288391153232,0.017823306366168287,3.4372206179230975,1.977683798348462,0.018583312215084993
9.573033,-0.032889,1.931618,-0.00485,0.008494,0.003017,0.394751,-0.544435,-0.31894,-0.667862,-1.073148,-78.242463,-117.955362,2.09,2.99860798535952,1.678655962718154,-9.114459004298196,-0.0022851839401247962,-0.005308483235872463,0.018906017197850702,3.436500500659223,1.9318979745951907,0.019769662268009785
9.565527,-0.042262,1.953831,-0.010238,0.006389,0.003523,0.394733,-0.544426,-0.318937,-0.667881,-1.063324,-78.241109,-117.967109,2.1,2.998215428959926,1.6779018979054576,-9.11523224957764,-0.001005742516817247,-0.006672613383646783,0.01998831283263795,3.4357896526778364,1.9542880169527215,0.021096633316080436
9.560959,-0.030478,2.041993,-0.032284,0.018373,0.00859,0.394693,-0.544427,-0.318825,-0.667957,-1.078831,-78.23283,-117.965485,2.11,2.9980799019108004,1.6766771362545818,-9.116636729685236,0.00032791701708216137,-0.007999800062742616,0.021022384492133332,3.435073407873599,2.0422204387707517,0.022495443546394833
9.552305,-0.013934,1.965205,-0.029978,0.016747,0.013326,0.394678,-0.544433,-0.318716,-0.668014,-1.10587,-78.225344,-117.949762,2.12,2.998118419269971,1.6750836669948619,-9.118699076054348,0.0016924173024473058,-0.009265098977221468,0.02195851717829876,3.4343295338972384,1.9652543978785546,0.02389315408339751
9.541525,-0.046406,1.923055,-0.020916,0.022198,0.015638,0.394698,-0.544411,-0.318615,-0.668068,-1.133982,-78.214795,-117.928606,2.13,2.9982241725387677,1.6732487860862268,-9.121432251743167,0.003060069814732023,-0.01044590218078115,0.02274750656485234,3.4335272954987284,1.9236148392703254,0.025217651646405992
9.532312,-0.067793,1.913377,-0.005433,0.011105,0.013248,0.394718,-0.544402,-0.318577,-0.668081,-1.149938,-78.210828,-117.914053,2.14,2.9982719038334924,1.6713155184409139,-9.124832521123384,0.00439931116606894,-0.011522056920069747,0.02334328136166541,3.4326272695267592,1.9145776126806666,0.026401146170859736
9.584903,-0.098954,2.030875,0.006424,0.006674,0.013596,0.394782,-0.544374,-0.318604,-0.668054,-1.157592,-78.209193,-117.897794,2.15,2.9981249636727187,1.6694318252474365,-9.128876590398008,0.005675438583256122,-0.012475748448691848,0.02370556491309194,3.4315821302930414,2.0332843283075293,0.027382635196711164
9.541696,-0.07758,2.026291,0.002944,0.011301,0.011034,0.394828,-0.544338,-0.318609,-0.668053,-1.161826,-78.205018,-117.88841,2.16,2.9976436136312112,1.6677394918897142,-9.133519267387445,0.006851646981110029,-0.013291214364630259,0.02380239899384116,3.4303385032898066,2.027775597318648,0.0281097072824019
9.532595,-0.098366,2.015983,-0.011903,0.008801,0.008733,0.394829,-0.544331,-0.318584,-0.668071,-1.166514,-78.20222,-117.885908,2.17,2.99669401138431,1.6663636037288763,-9.138691973345358,0.00789034093540349,-0.013954367948520273,0.023612357016444794,3.4288398413601757,2.018381362935409,0.028539889081628255
9.587977,-0.042728,2.031824,-0.014156,0.008286,0.013198,0.394834,-0.54434,-0.318535,-0.668083,-1.185721,-78.199677,-117.870625,2.18,2.995157246417539,1.665403440063606,-9.144302386029839,0.008754667392745509,-0.014452408535314126,0.02312628864803303,3.4270301354005026,2.032273222025031,0.028641605057352554
9.595176,-0.0353,2.011229,-0.015136,0.010415,0.011963,0.394839,-0.544339,-0.318487,-0.668104,-1.201016,-78.195916,-117.859179,2.19,2.9929377904847283,1.6649254657070955,-9.150235409526697,0.009410193396059188,-0.014773490899990216,0.022348458939518805,3.4248581611610716,2.0115387593683103,0.02839474229667682
9.587575,-0.045988,2.033649,-0.016116,0.009233,0.018037,0.394846,-0.544364,-0.318407,-0.668118,-1.236039,-78.19292,-117.830842,2.2,2.9899707877669504,1.6649589025039688,-9.15635556313538,0.009826639360303415,-0.014906515550254134,0.02129697175941747,3.422281908131903,2.0341689092464765,0.02779079079639257
9.559165,-0.007631,1.986211,-0.017096,0.011362,0.016802,0.394864,-0.544372,-0.318337,-0.668134,-1.265635,-78.188554,-117.805933,2.21,2.9862277210163866,1.6654941484761174,-9.162510771329396,0.009979571828275571,-0.014841088893372325,0.020003402393382583,3.4192728408793163,1.9862256590533716,0.026832552631612872
9.53743,0.00183,1.98463,-0.013275,0.01267,0.01432,0.394874,-0.544371,-0.318273,-0.668159,-1.287434,-78.183582,-117.788914,2.22,2.9817201263474207,1.6664841003894149,-9.16853743230132,0.009851958298684573,-0.01456768628261251,0.018511610822539826,3.4158196920674833,1.9846308437087234,0.025533474130889633
9.522364,-0.01767,2.028773,-0.011757,0.012298,0.014411,0.394899,-0.544361,-0.318226,-0.668175,-1.307329,-78.178706,-117.770788,2.23,2.9765011646632415,1.667848236841019,-9.174266554392984,0.009435489238307724,-0.01407803125331512,0.016875765324057053,3.4119315532957764,2.0288499487219354,0.023916748867857954
9.58512,-0.063833,2.005267,-0.015384,0.010122,0.013484,0.394886,-0.544379,-0.318151,-0.668204,-1.329835,-78.175349,-117.756381,2.24,2.9706649743922187,1.6694791380650336,-9.179530681480651,0.008731578510347641,-0.013365680791940508,0.015157670693249985,3.407640089932487,2.0062827301200596,0.02201446949529835
9.548574,-0.072153,2.046496,-0.015335,0.011287,0.015377,0.394903,-0.544381,-0.318092,-0.66822,-1.354457,-78.171036,-117.735521,2.25,2.9643438229781363,1.6712509589502107,-9.184171275998363,0.0077519637299068135,-0.012426780684325178,0.013423558032806837,3.4030007447281925,2.0477675486795373,0.019867303040580046
9.564715,-0.045289,2.037113,-0.018279,0.005521,0.01531,0.394899,-0.544412,-0.318028,-0.668228,-1.382203,-78.170071,-117.714063,2.2600000000000002,2.9577031500472897,1.6730292388989971,-9.18804618498813,0.006518843209590776,-0.01126092984536122,0.011740544346160248,3.398092811859414,2.0376163692633606,0.017525531070912807
9.577162,-0.077988,2.029125,-0.020826,0.006859,0.012094,0.394884,-0.544434,-0.317968,-0.668247,-1.401264,-78.168337,-117.702099,2.27,2.9509346686771103,1.6746813349541225,-9.191036778593372,0.005064506619796817,-0.009872071825718696,0.010173002662766963,3.393018271752189,2.0306231540512387,0.015053139626362948
9.541478,-0.048213,2.002795,-0.019799,0.005894,0.015221,0.394882,-0.544462,-0.317905,-0.668255,-1.42892,-78.167072,-117.680417,2.2800000000000002,2.9442477794071533,1.6760867132680397,-9.193054328354863,0.0034304422135020577,-0.008269318874372883,0.008779093248813501,3.3878992985237346,2.003375228306969,0.012538821583290803
9.550237,-0.030394,2.014781,-0.024062,0.008474,0.015325,0.394871,-0.544491,-0.317822,-0.668278,-1.458547,-78.164364,-117.659551,2.29,2.9378596621323805,1.6771463368515405,-9.194045196123142,0.0016659337398743509,-0.006467611223013884,0.007607693619049843,3.38287440346211,2.015010241462063,0.010123355785461587
9.548605,-0.043046,1.982684,-0.019801,0.005895,0.015223,0.394856,-0.544528,-0.317746,-0.668294,-1.487558,-78.163259,-117.639141,2.3000000000000003,2.9319845348331217,1.6777904481718637,-9.193994443274606,-0.0001738066109427469,-0.0044881222631935995,0.006695932540379569,3.378093264028887,1.9831512302323289,0.008062813576704811
9.541067,-0.053801,2.004609,-0.012207,0.004028,0.015675,0.394871,-0.544548,-0.31771,-0.668285,-1.511649,-78.163088,-117.616992,2.31,2.926822681256898,1.6779841605610755,-9.192927547419774,-0.002029889304982457,-0.0023583380671479202,0.006067485585567735,3.3737103981541856,2.005330843148332,0.006818840837012797
9.553545,-0.086454,1.996352,-0.013776,0.003238,0.013692,0.394875,-0.544572,-0.317675,-0.66828,-1.53218,-78.163388,-117.599409,2.32,2.9225499228558838,1.6777304331408742,-9.19091002532771,-0.003842271995742089,-0.00011176501678318178,0.005731732059334965,3.3698779588988086,1.9982231111715227,0.006901325808005928
9.531982,-0.076592,1.993988,-0.009951,0.004545,0.011211,0.394882,-0.544579,-0.317657,-0.668278,-1.542742,-78.162986,-117.589762,2.33,2.919308220813562,1.6770701963250554,-9.188044895953459,-0.00555242241965367,0.0022127509040547433,0.0056838099962650025,3.3667380253758097,1.9954584632630168,0.008248112351520787
9.55195,-0.099959,1.963979,-0.01192,-0.003349,0.012373,0.39487,-0.544624,-0.317639,-0.668258,-1.559861,-78.167144,-117.575854,2.34,2.9171980343413604,1.6760796031948404,-9.184468063136677,-0.007105968986357977,0.004572078506062931,0.005905541618330966,3.3644148388406077,1.9665211196735213,0.010308933936470985
9.532013,-0.079201,1.993736,-0.011428,-0.002756,0.009337,0.394855,-0.544655,-0.317636,-0.668242,-1.566694,-78.170953,-117.570881,2.35,2.916272940739662,1.6748645899754095,-9.18034184044402,-0.008455183248993255,0.006920185126934621,0.006367140025827564,3.363007472433544,1.9953085064964264,0.012645930494574083
9.553531,-0.091863,1.996177,-0.015205,-0.002898,0.013712,0.394842,-0.544704,-0.317605,-0.668224,-1.588582,-78.174793,-117.553387,2.36,2.9165368610864273,1.673553120898727,-9.175846968713923,-0.009561144324656847,0.009209779035056771,0.0070295530189462005,3.362583428042454,1.998289625178993,0.01502165524560009
9.569981,-0.064844,1.985597,-0.014524,-0.006489,0.014571,0.39483,-0.544763,-0.317585,-0.668193,-1.61181,-78.180655,-117.533476,2.37,2.9179440548924487,1.672285655243303,-9.17117358028428,-0.010395451968751654,0.011394118417395469,0.0078472562454722,3.3631736232634064,1.9866555289594119,0.017305224261082424
9.541174,-0.064063,2.003801,-0.013736,-0.004435,0.01191,0.394824,-0.544804,-0.317579,-0.668167,-1.626683,-78.18526,-117.520145,2.38,2.9204018651490515,1.6712044971785014,-9.166511635813128,-0.010941381298677949,0.013428879625974202,0.008771279760225983,3.364769163754879,2.0048248091965544,0.019416075333705176
9.557634,-0.036798,1.993241,-0.012217,-0.004809,0.012,0.394813,-0.544848,-0.31757,-0.668141,-1.641451,-78.1902,-117.507527,2.39,2.9237760234190424,1.6704427668429211,-9.162041396665794,-0.011194406268690237,0.01527396958714924,0.009752242946609608,3.3673201915496396,1.993580642182553,0.021300589690131776
9.541342,-0.06695,2.002905,-0.015502,-0.004357,0.013339,0.394778,-0.544913,-0.317526,-0.668129,-1.664752,-78.195085,-117.491971,2.4,2.927898170331545,1.6701137626985572,-9.157924497708088,-0.01116205852388716,0.01689516814168551,0.010743183834782214,3.3707369633636417,2.00402363796563,0.02292278900863577
9.541463,-0.068328,2.002281,-0.014379,-0.008517,0.009266,0.394746,-0.54497,-0.317525,-0.668103,-1.673589,-78.202193,-117.486678,2.41,2.9325751153539454,1.6703014714266278,-9.154296153325728,-0.010863130528910627,0.018265496176069235,0.011701998618323583,3.3748931557374027,2.003446510028406,0.024260517865647407
9.527537,-0.049139,1.977614,-0.019074,-0.002044,0.006998,0.394714,-0.545005,-0.31751,-0.6681,-1.67802,-78.205498,-117.486887,2.42,2.9375992559852064,1.6710529230426905,-9.151258964952481,-0.010326274110668837,0.019366224233294704,0.01259335146803911,3.379631231417765,1.9782243993836999,0.025303657428531617
9.54168,-0.070363,2.001174,-0.011146,-0.010131,0.006033,0.394678,-0.545055,-0.317532,-0.66807,-1.676273,-78.213583,-117.490515,2.43,2.9427595064803884,1.6723729853366764,-9.148878702461552,-0.009588085011244044,0.020187462095464282,0.013389967761141893,3.3847695512493323,2.002410629727329,0.02605295063295267
9.540337,-0.081877,1.967543,-0.010553,-0.007211,0.006785,0.394647,-0.545099,-0.317543,-0.668047,-1.677368,-78.220001,-117.491576,2.44,2.947852056901352,1.6742220435368727,-9.14718230688642,-0.008690798002971664,0.0207282998557763,0.014073279427765182,3.390110794714874,1.969245870880018,0.02651885326878579
9.572412,-0.063778,2.013642,-0.014134,-0.008219,0.007749,0.394611,-0.545152,-0.317547,-0.668024,-1.68189,-78.226962,-117.490547,2.45,2.9526903007338046,1.6765168215156308,-9.146158214043362,-0.00767974300941161,0.02099650202184224,0.014633443733685808,3.3954511725059984,2.014651765801723,0.026720202569418896
9.557052,-0.05506,1.955785,-0.014481,-0.01084,0.005479,0.39456,-0.545212,-0.317557,-0.667999,-1.681601,-78.235466,-117.495214,2.46,2.957113335585481,1.67913437855721,-9.145758938516192,-0.006600728261527304,0.021007785145130638,0.015068801958940422,3.4005898812926847,1.9565598814820364,0.026682680576813556
9.572807,-0.065537,2.011708,-0.01752,-0.01009,0.005301,0.394504,-0.545274,-0.317559,-0.667981,-1.681484,-78.243541,-117.500905,2.47,2.9609925530938055,1.6819190760219787,-9.14590570025045,-0.005497520086751861,0.020784734015207626,0.0153848787587383,3.405338261871146,2.0127752422049014,0.0264371403447545
9.571446,-0.077104,1.978085,-0.018446,-0.006796,0.005965,0.394457,-0.545326,-0.317553,-0.66797,-1.683821,-78.249656,-117.504004,2.48,2.964235982219286,1.6846920723228858,-9.146494738644884,-0.00440957961841703,0.02035543030851115,0.015593044658530276,3.4095281692385404,1.979587152423707,0.026017897247447436
9.571622,-0.07807,1.977196,-0.019582,-0.011472,0.006356,0.394396,-0.545398,-0.317548,-0.667949,-1.687898,-78.258504,-117.506619,2.49,2.9667902211222645,1.68726269651164,-9.147404856378424,-0.0033701949326324864,0.019751880394975826,0.015708973126590583,3.41301913607094,1.9787367048993658,0.025461084613843873
9.541384,-0.087421,1.962218,-0.015655,-0.007844,0.007662,0.394358,-0.545452,-0.317546,-0.667928,-1.693567,-78.265221,-117.505187,2.5,2.968639970518477,1.6894408929792233,-9.148505676113261,-0.002405114791451726,0.01900833597638402,0.01575102164758609,3.4157039985090014,1.9641644306842032,0.024803146911105464
9.517716,-0.125967,1.992965,-0.012125,-0.007997,0.004803,0.394318,-0.545496,-0.317564,-0.667908,-1.688807,-78.272106,-117.512464,2.5100000000000002,2.9698053495706964,1.691049838814473,-9.14966607849005,-0.0015317505139417562,0.018159602760269223,0.015738655718379388,3.417512746383425,1.9969419561704842,0.024079508214858013
9.543252,-0.078159,1.993374,-0.012227,-0.010319,0.001013,0.394253,-0.545547,-0.317587,-0.667893,-1.675274,-78.280479,-117.530348,2.52,2.9703373205378996,1.6919378187855567,-9.150762313014626,-0.0007589693917935011,0.01723942895432728,0.015691018109700205,3.418414454161036,1.9949056953041666,0.023323421587063874
9.555939,-0.109653,1.983716,-0.012422,-0.009456,0.004427,0.394209,-0.545595,-0.317608,-0.66787,-1.669743,-78.288205,-117.538584,2.5300000000000002,2.970311660847367,1.6919884992756171,-9.151685323537505,-8.746034584396805e-05,0.016279057515508396,0.015625724768132298,3.4184172425622354,1.9867443089298131,0.022564986980602244
9.563546,-0.10138,1.961345,-0.012668,-0.009755,0.005946,0.394185,-0.545637,-0.317639,-0.667835,-1.667466,-78.29586,-117.54069,2.54,2.969821994877528,1.6911288640776918,-9.1523468954457,0.0004893864866725826,0.015306014223194775,0.015557944365178789,3.4175663148174675,1.963963368656605,0.021830327606428102
9.586734,-0.102922,1.995904,-0.015707,-0.009004,0.00577,0.394137,-0.545692,-0.317644,-0.667816,-1.667481,-78.303305,-117.545186,2.5500000000000003,2.96897242972668,1.6893342508434885,-9.152684304755681,0.0009841771676987407,0.01434318805342107,0.015499791620621768,3.4159402072562797,1.998555907474194,0.021140936320700583
9.56544,-0.09237,1.99242,-0.012126,-0.007997,0.004805,0.394101,-0.545733,-0.317665,-0.667794,-1.662907,-78.310123,-117.551572,2.56,2.967870329514288,1.6866301441287723,-9.152663229523705,0.0014139035982964553,0.013408241421542117,0.015460036658145843,3.41364549065879,1.9945600199793438,0.020513234627304557
9.594468,-0.095529,1.972864,-0.009282,-0.007886,0.008394,0.394081,-0.545776,-0.317682,-0.667762,-1.666409,-78.316883,-117.548747,2.57,2.966619713555054,1.6830906231777434,-9.15227877683493,0.0017981553845770489,0.012513366589194951,0.015444106255333956,3.4108102513453185,1.9751754738090994,0.019958409861727696
9.617602,-0.097031,2.00773,-0.006432,-0.004446,0.00468,0.394058,-0.5458,-0.317706,-0.667745,-1.658999,-78.321769,-117.55631,2.58,2.965315679930286,1.6788336104734092,-9.151554589518573,0.002157288792471424,0.01166538254570603,0.015454330855103249,3.40757675970705,2.010073324001142,0.019482591897660384
9.564217,-0.10512,1.957873,-0.00437,-0.003064,0.003626,0.394043,-0.54581,-0.317744,-0.667728,-1.646084,-78.325846,-117.567375,2.59,2.964040145483038,1.6740133004919235,-9.15054012458846,0.002510682831580564,0.01086614595329967,0.015490376000707885,3.4040937875239234,1.9606929638597166,0.01908738863235385
9.59474,-0.097353,1.971451,-0.000601,-0.006248,0.00655,0.394049,-0.545825,-0.317795,-0.667688,-1.639804,-78.331617,-117.568642,2.6,2.962859066599544,1.6688103487346304,-9.149306330434726,0.002875198785041812,0.010113232015131653,0.01554978942713352,3.4005090543292074,1.973853249866869,0.01877072670605971
9.558548,-0.104739,2.011185,-0.003342,-0.004037,0.006751,0.394046,-0.54584,-0.317829,-0.667661,-1.63503,-78.336201,-117.570792,2.61,2.9618211741363822,1.66342055353203,-9.147940075975765,0.0032639381782348276,0.009400827481207335,0.01562859479748917,3.396962261414663,2.013910465325109,0.0185278661779188
9.566039,-0.0965,1.989344,-0.003588,-0.004336,0.00827,0.394044,-0.545863,-0.317855,-0.667631,-1.635863,-78.340966,-117.567899,2.62,2.9609581321786074,1.6580428551575834,-9.146537784300735,0.0036853670652414105,0.00872076887279356,0.015721868433072307,3.3935791091491794,1.991683157617195,0.018352408211596827
9.58251,-0.068641,1.978916,-0.00638,-0.003285,0.006576,0.394034,-0.545882,-0.317877,-0.667611,-1.632282,-78.345122,-117.570608,2.63,2.9602859241809214,1.6528675012195764,-9.145198779614015,0.004142843921950571,0.008063654320217373,0.015824244692895253,3.390466594657959,1.9801060885561157,0.018237115913932955
9.575132,-0.078519,2.000142,-0.004512,-0.001042,0.008936,0.394029,-0.5459,-0.317885,-0.667595,-1.63532,-78.348044,-117.567418,2.64,2.9598071893171047,1.6480651842243348,-9.144018858919893,0.004634557070905749,0.007419956913549559,0.01593030784924348,3.387709764632385,2.0016826055908563,0.018174421256647564
9.573555,-0.090016,1.967305,-0.003969,0.000716,0.007795,0.394035,-0.545903,-0.317905,-0.66758,-1.633423,-78.349888,-117.566996,2.65,2.959514181457878,1.6437778547858932,-9.143084547443403,0.0051538481406112795,0.006781070909599444,0.016034842995051358,3.385369968871173,1.9693633091131255,0.018156576307592952
9.573542,-0.090733,1.967333,0.000834,-0.000113,0.006539,0.39404,-0.545904,-0.317936,-0.667561,-1.627067,-78.352322,-117.5701,2.66,2.9593920045233366,1.6401117658616993,-9.142468398688743,0.005689872772384157,0.006140229271835492,0.016132935507579285,3.3834845412613657,1.9694241823888525,0.01817549657556394
9.553659,-0.069607,1.997509,0.001914,7.3e-05,0.011559,0.394074,-0.545903,-0.317966,-0.667528,-1.63231,-78.354473,-117.558948,2.67,2.9594217890713974,1.6371331245814364,-9.142225574193413,0.006228529979065883,0.005493241451232144,0.016219927126028478,3.382067739302737,1.9987214261947561,0.018222412664500053
9.582502,-0.072887,1.978803,-0.002152,0.001799,0.008259,0.394088,-0.545901,-0.317987,-0.667512,-1.631282,-78.355667,-117.556774,2.68,2.9595835120570726,1.6348665322319245,-9.142391805051593,0.0067535778491685985,0.004839013408836168,0.01629125498101141,3.3811127078303844,1.98014490065197,0.018287478048982203
9.559436,-0.072886,1.943511,-0.000387,0.001722,0.006828,0.394102,-0.545891,-0.318019,-0.667495,-1.624568,-78.356951,-117.559175,2.69,2.9598582204977824,1.6332961920200142,-9.142982714483608,0.0072478459193328045,0.004179826755217501,0.016342215278697926,3.380594198704627,1.9448772136350923,0.018359472279706985
9.59141,-0.054666,1.99057,0.00143,0.002805,0.007293,0.394129,-0.545874,-0.318056,-0.667476,-1.618573,-78.357532,-117.559183,2.7,2.960229495554694,1.632369671118062,-9.143994379281228,0.00769445360928771,0.0035213695005058233,0.016367703112947385,3.3804717732201355,1.9913204906433317,0.01842569848603197
9.55188,-0.083264,1.965555,0.003545,0.005347,0.008135,0.394164,-0.545847,-0.318091,-0.667461,-1.612951,-78.356718,-117.55817,2.71,2.9606840798859375,1.6320038321715242,-9.145404933535643,0.008077949498945284,0.002872526190783644,0.016361982401349777,3.38069323203283,1.9673178064870454,0.018472117987018387
9.580638,-0.086312,1.947278,0.003545,0.005347,0.008135,0.394188,-0.545829,-0.318113,-0.667451,-1.609404,-78.356055,-117.557309,2.72,2.9612116798184425,1.632092413218895,-9.147176972806076,0.00838529729646854,0.002244949121688355,0.016318535135339794,3.3811980506885186,1.9491899267716322,0.01848371164762238
9.582158,-0.076274,1.980345,0.002598,-0.00019,0.005108,0.394201,-0.545818,-0.318164,-0.667428,-1.596344,-78.358461,-117.564442,2.73,2.9618040363947653,1.6325146435982125,-9.14926050035564,0.00860664986964821,0.0016524439898084671,0.01623002822371483,3.3819206394542913,1.9818133217084297,0.018445021259427964
9.589511,-0.067767,1.959242,0.004089,0.007105,0.006993,0.394233,-0.545785,-0.318195,-0.667421,-1.587928,-78.356695,-117.566758,2.74,2.962453428939064,1.6331442416722857,-9.151596165921852,0.008735871109199352,0.0011102121898727932,0.016088421020321604,3.3827932885028846,1.9604136249406654,0.018340809853172026
9.618248,-0.070626,1.941101,0.002518,0.006321,0.00501,0.394257,-0.545752,-0.318233,-0.667416,-1.574139,-78.355373,-117.574685,2.75,2.9631508273944984,1.6338581481489705,-9.154118575660737,0.008770785109310748,0.0006339977862334993,0.01588521911972769,3.383748701390439,1.9423854210936098,0.018156784162081628
9.546372,-0.046085,1.955148,0.009918,0.0053,0.008863,0.394299,-0.545724,-0.318273,-0.667395,-1.569426,-78.354736,-117.571641,2.7600000000000002,2.963883942974089,1.634544402675712,-9.156759492388643,0.00871315186786223,0.00023919002314084275,0.015611862200462782,3.3847220612242497,1.9556910617807202,0.01788033748858896
9.558694,-0.077602,1.946979,0.008891,0.006274,0.005738,0.394342,-0.545679,-0.31833,-0.667379,-1.554016,-78.353429,-117.577493,2.77,2.9646354383405664,1.6351086648824067,-9.159450792020994,0.008568387278218797,-6.006777017837131e-05,0.015260217630780348,3.385652614820116,1.9485249028034002,0.017501288833264118
9.528135,-0.086311,1.933486,0.006828,0.004893,0.006792,0.394387,-0.545642,-0.318385,-0.667356,-1.542823,-78.352805,-117.579115,2.7800000000000002,2.965381545782932,1.6354790058295343,-9.162127090158254,0.008345061505387396,-0.00025171460240706563,0.014823138965625749,3.386484798515879,1.935411506867984,0.017012608870012144
9.54953,-0.098197,1.93634,0.010243,-0.000912,0.007444,0.394429,-0.545622,-0.318457,-0.667315,-1.53192,-78.355588,-117.579576,2.79,2.966091302816448,1.635608741600562,-9.164727996149605,0.008054222920801263,-0.00032650995763458453,0.014295040409486114,3.3871689612777733,1.9388283179304453,0.016411133291739356
9.549517,-0.098671,1.936382,0.00775,0.001598,0.006127,0.394451,-0.545605,-0.318504,-0.667292,-1.521197,-78.357102,-117.583804,2.8000000000000003,2.9667265510182634,1.6354772353271545,-9.167199982867215,0.007708603963076435,-0.00027863622828940563,0.013672435102938611,3.387661762305982,1.9388943282615998,0.015698270441400257
9.528117,-0.08805,1.933498,0.001989,-0.006435,0.011661,0.394474,-0.545626,-0.318547,-0.66724,-1.527152,-78.362983,-117.57188,2.81,2.967242762892278,1.6350887439869022,-9.16949787200765,0.007321770419811415,-0.00010613539773216505,0.01295438660144854,3.3879263295782076,1.935501826014122,0.014880716347772598
9.587554,-0.083153,1.928129,0.003754,-0.006513,0.01023,0.394478,-0.545656,-0.318579,-0.667198,-1.531345,-78.36917,-117.564738,2.82,2.96759067483079,1.6344695193462264,-9.17158592628113,0.006907276885640359,0.00018884158064248947,0.012142829007161217,3.38793226364025,1.929921206176563,0.013971200070668124
9.544789,-0.061003,1.922253,0.004739,-0.00532,0.004155,0.394486,-0.545656,-0.31865,-0.66716,-1.514764,-78.374527,-117.574215,2.83,2.96771862424341,1.6336634789678304,-9.173438519428695,0.006477888916899489,0.0005999846319820006,0.011242721764080792,3.387655560294534,1.923220726286507,0.012989296325930813
9.532497,-0.030483,1.930315,0.006739,-0.008428,0.008511,0.394503,-0.545674,-0.318714,-0.667104,-1.510694,-78.381669,-117.571001,2.84,2.9675754244770602,1.632726838608472,-9.175040336818546,0.006044927031861242,0.0011169750053524614,0.010262019765672122,3.3870785094934868,1.93055567454399,0.011962350339885311
9.56806,-0.062807,1.956433,0.007828,-0.004913,0.006227,0.394527,-0.54567,-0.318788,-0.667058,-1.498067,-78.386762,-117.574634,2.85,2.967113565280936,1.6317221416560639,-9.176386057556778,0.005617779376131321,0.0017258267435180338,0.009211457140059847,3.386189607338136,1.9574408810326815,0.01092652120808302
9.573144,-0.103318,1.968652,0.010619,-0.005965,0.007922,0.394556,-0.545672,-0.318862,-0.667004,-1.489889,-78.392488,-117.573385,2.86,2.966292497563128,1.630712137474653,-9.17747949173205,0.005203618502189573,0.0024093989937045207,0.008104161890018148,3.384983494259086,1.9713612825223084,0.009927753470288056
9.567642,-0.035899,1.855079,0.021519,-0.015978,0.005225,0.394597,-0.545676,-0.319007,-0.666908,-1.467404,-78.403932,-117.579073,2.87,2.9650817461501964,1.6297539524787772,-9.17833219255611,0.004807343110340993,0.0031480494268584657,0.006955135578022068,3.383460906671347,1.8554263214803222,0.00902189968261426
9.504383,-0.029317,1.945396,0.02044,-0.016167,0.000204,0.394609,-0.54568,-0.319153,-0.666826,-1.432956,-78.415628,-117.599205,2.88,2.9634635931829325,1.6288939683737824,-9.178961623453867,0.004431747925802318,0.003920391287302828,0.005780644319102573,3.3816286059124216,1.945616890167486,0.008271983212470026
9.563154,-0.061321,2.006191,0.013338,-0.013686,-0.003272,0.394603,-0.54568,-0.319289,-0.666766,-1.391171,-78.425878,-117.629378,2.89,2.9614350916713463,1.6281637717311848,-9.179389021269042,0.004077905186167106,0.004704111357415508,0.004597572082249395,3.379499233578903,2.007127946475261,0.007739227572685351
9.636741,-0.075781,2.024272,-0.014304,-0.011683,0.002079,0.394542,-0.545736,-0.319313,-0.666745,-1.380644,-78.434905,-117.643976,2.9,2.959009207808685,1.6275774660130526,-9.179637145692427,0.0037457215757343023,0.005476803759260715,0.003422783851276863,3.377091041084035,2.0256899787344063,0.007466006886745782
9.682966,-0.012343,1.927916,-0.018863,0.00263,0.014603,0.394533,-0.545773,-0.319261,-0.666745,-1.40618,-78.435559,-117.624264,2.91,2.9562149514634477,1.6271305408831458,-9.179728131460752,0.0034346174666684973,0.006216774798863077,0.0022725357130736826,3.374427453114189,1.9279555110803257,0.007457164649470916
9.566715,0.023203,1.903607,-0.014009,0.002958,0.015242,0.394527,-0.545809,-0.319209,-0.666743,-1.432836,-78.43614,-117.603073,2.92,2.9530964320419333,1.6268003803628759,-9.17968165830052,0.0031442630336085066,0.006903776515145606,0.001161954847334968,3.371536447153967,1.9037484050309799,0.007674546192631732
9.585642,-0.038767,1.940695,-0.015335,0.002472,0.011741,0.394518,-0.545834,-0.319176,-0.666743,-1.448356,-78.436922,-117.591522,2.93,2.9497108661849074,1.6265483737635071,-9.179513626455956,0.00287529880997924,0.007519631405320952,0.00010459997710734674,3.3684497630634223,1.941082162947772,0.0080512819397763
9.583128,-0.089204,1.975101,-0.015335,0.002472,0.011741,0.39451,-0.54586,-0.319144,-0.666743,-1.463718,-78.437658,-117.580095,2.94,2.946125657626819,1.626323482914307,-9.179235483000081,0.0026299659822175514,0.008048719282336685,-0.0008878926324024851,3.3652019941759184,1.977114390675714,0.008513927206651142
9.559104,-0.128391,2.007168,-0.012567,0.009091,0.015231,0.39453,-0.545864,-0.319098,-0.66675,-1.486944,-78.434596,-117.559059,2.95,2.9424147555360043,1.6260670196257823,-9.178854295744845,0.0024125735880170035,0.008478310923622506,-0.001806068866491736,3.361829642606936,2.01127015318803,0.008998008234366353
9.529398,-0.09977,1.926603,-9.8e-05,-0.000142,0.014513,0.394566,-0.545875,-0.31911,-0.666714,-1.502848,-78.436832,-117.538755,2.96,2.9386545605997014,1.6257182963737136,-9.178373617571848,0.0022297362275240946,0.008798751899975603,-0.0026428034158952804,3.358370230587699,1.9291845874640923,0.009453791225573232
9.586262,-0.143802,1.955824,0.014746,-0.003213,0.005809,0.39461,-0.545851,-0.319205,-0.666662,-1.484945,-78.440957,-117.543727,2.97,2.9349196810047657,1.6252207312306826,-9.177795115160773,0.002090328343022879,0.009003520550107124,-0.0033933052773049573,3.354861540983638,1.9611033971160217,0.00984618583934062
9.581384,-0.104035,1.942738,0.014446,-0.004671,0.005433,0.394641,-0.545839,-0.319292,-0.666612,-1.468482,-78.446071,-117.549442,2.98,2.9312788497778977,1.6245279229055902,-9.177120844710918,0.0020051210475647966,0.009089201158762035,-0.0040549527174508215,3.351341025239775,1.9455215799031889,0.0101526710603954
9.569112,-0.072855,1.950935,0.010222,-0.006425,-0.003554,0.394636,-0.54582,-0.319404,-0.666577,-1.427137,-78.452171,-117.580985,2.99,2.9277913119575456,1.6236091756346318,-9.176355948402174,0.0019860953175098767,0.009055421759682068,-0.004626940152940509,3.347845384957175,1.9522948612466307,0.01036116851686388
9.576658,-0.063607,1.928923,0.001892,-0.00543,0.000566,0.394621,-0.545824,-0.319469,-0.666551,-1.404081,-78.457695,-117.599729,3.0,2.924503977544174,1.6224539574030263,-9.175511439447288,0.002045459823816739,0.00890480236024333,-0.005109745120446875,3.344410315521174,1.929971448073261,0.010468472007020616
9.555366,-0.052409,1.925614,0.003891,-0.008537,0.004922,0.394624,-0.545838,-0.319541,-0.666503,-1.390231,-78.46488,-117.606911,3.0100000000000002,2.92144960465905,1.6210748252174316,-9.174606669845955,0.002194439470184675,0.008642943323613787,-0.0055044593281095774,3.341070394576601,1.926327069912324,0.010479270317074423
9.557138,-0.042006,1.957669,0.007719,-0.007238,0.002435,0.394647,-0.545826,-0.319644,-0.66645,-1.365781,-78.471151,-117.619762,3.02,2.918646212618514,1.6195084507987552,-9.173671059751019,0.0024419366383809024,0.008278457707906342,-0.005812065681312033,3.3378590947853057,1.9581196126889187,0.010405576584281434
9.573758,-0.013466,1.946862,0.009237,-0.007616,0.002523,0.394658,-0.545822,-0.319738,-0.666401,-1.342031,-78.47784,-117.633921,3.0300000000000002,2.916097818178295,1.6178145276265057,-9.172744723352201,0.002793194993946422,0.00782302095116314,-0.006032772596853957,3.3348088897242056,1.946908570066915,0.010266252494552082
9.557409,-0.042174,1.956344,0.0065,-0.005402,0.002724,0.394662,-0.545821,-0.319812,-0.666365,-1.322351,-78.483321,-117.646621,3.04,2.9137964441758113,1.6160725271646483,-9.171877747579817,0.0032486099090149488,0.007291383718176626,-0.006165528030543214,3.3319513998778456,1.9567985314313787,0.010086202395453672
9.586372,-0.044976,1.936955,0.000908,-0.006619,0.006644,0.394666,-0.545837,-0.319865,-0.666324,-1.314863,-78.489383,-117.649054,3.0500000000000003,2.9117251866403393,1.614376481351391,-9.171128045802169,0.0038028268257444984,0.006701276328529848,-0.0062078230782709855,3.3293174955321123,1.9374770998907316,0.009894729085176123
9.579042,-0.05431,1.957939,-0.000846,-0.003215,0.000768,0.394647,-0.54584,-0.319916,-0.666309,-1.293393,-78.493627,-117.667848,3.06,2.9098619729833772,1.6128281766556323,-9.170557891033422,0.004444248867635223,0.0060731311163959075,-0.0061558598163946494,3.3269372445582808,1.958692090100177,0.009722596342207956
9.616946,-0.037432,1.950448,-0.003174,0.002781,0.005135,0.394649,-0.54583,-0.319941,-0.666303,-1.283387,-78.494323,-117.675237,3.0700000000000003,2.90818353150991,1.6115293259875951,-9.170229404702207,0.005155039914059305,0.005429563832769777,-0.006005106751977816,3.324839578305017,1.9508071548279702,0.009597703216515697
9.616895,-0.037891,1.950693,0.000108,0.002323,0.003791,0.394643,-0.545823,-0.319967,-0.6663,-1.270489,-78.495453,-117.686337,3.08,2.9066690466369054,1.610573413090636,-9.17019941591063,0.00591166314307866,0.0047945845305905595,-0.005751207078042678,3.3230515592797407,1.951060969864858,0.009540030649465502
9.598714,-0.077383,1.928335,-0.000618,0.004754,0.00104,0.394642,-0.545795,-0.320008,-0.666303,-1.247371,-78.49507,-117.705612,3.09,2.9053030078499638,1.6100379595049985,-9.170514197747003,0.006685942699930065,0.004192547209432551,-0.005391149160002579,3.3215971758280785,1.9298870435634308,0.009557393533566843
9.593667,-0.037493,1.916117,-0.000318,0.006213,0.001416,0.394637,-0.545769,-0.320037,-0.666314,-1.226771,-78.493936,-117.723926,3.1,2.904076870799951,1.609977936651201,-9.17120462435098,0.007446583109917077,0.0036468893194892735,-0.00492456332872269,3.320495659990974,1.9164837809744177,0.00964379208092478
9.548181,-0.063938,1.945788,-0.003001,0.009589,0.003513,0.394646,-0.545733,-0.320054,-0.66633,-1.211692,-78.49075,-117.73639,3.11,2.902989318084046,1.6104209375944325,-9.172282273856544,0.00816103282269554,0.0031787503269497443,-0.004354980440467387,3.3197594155529715,1.9468382081693385,0.009781245575643758
9.585894,-0.047233,1.939266,-0.006284,0.010048,0.004857,0.394637,-0.545714,-0.320042,-0.666356,-1.203932,-78.487412,-117.745834,3.12,2.9020451064997084,1.6113645484092052,-9.173736930474252,0.008797540043864351,0.002805587039807795,-0.0036908800096242768,3.319391737657504,1.939841121083116,0.00994437653685631
9.578252,-0.057053,1.961722,-0.008241,0.010993,0.009704,0.394655,-0.545694,-0.320022,-0.666372,-1.209193,-78.483347,-117.740606,3.13,2.901252684315189,1.6127761393327011,-9.175535818065134,0.009327225189294415,0.002539917992195273,-0.0029463704700562494,3.3193845836008493,1.9625514643170507,0.010105909760417663
9.608492,-0.04978,1.976836,-0.004412,0.01229,0.007217,0.394669,-0.545664,-0.32001,-0.666393,-1.207635,-78.478681,-117.741666,3.14,2.9006209267284007,1.614595057753524,-9.177624734628811,0.009725987882830621,0.0023883277822861915,-0.0021413793866766617,3.3197166989212845,1.9774626720360615,0.010241311223192657
9.615634,-0.041789,1.95682,-0.003706,0.017531,0.011761,0.394716,-0.545617,-0.319986,-0.666416,-1.215682,-78.470846,-117.730941,3.15,2.9001554489089325,1.616736977932315,-9.17993106537081,0.009976078466245755,0.002350845229045066,-0.001301282186902438,3.320352403533379,1.9572661630245898,0.010331599594717451
9.604672,-0.073065,1.914083,-0.010786,0.012345,0.00649,0.394721,-0.545592,-0.319964,-0.666444,-1.21409,-78.466056,-117.733889,3.16,2.899855003753388,1.6190999741038674,-9.182368453192122,0.010067193435754544,0.0024207791383637814,-0.0004559571468238347,3.3212412994145284,1.9154770228624514,0.010364190862261096
9.592619,-0.070888,2.024366,-0.025935,0.024962,0.009303,0.394711,-0.54556,-0.319859,-0.666527,-1.227512,-78.453994,-117.730677,3.17,2.899708456292481,1.621571754856416,-9.184842727633729,0.0099969979846558,0.002585056327000325,0.0003616855352531977,3.322319082755634,2.0256067758822294,0.010332148921951712
9.541185,-0.030976,1.943081,-0.025106,0.024852,0.015846,0.394721,-0.54554,-0.319734,-0.666597,-1.259659,-78.44195,-117.708653,3.18,2.8996927565961856,1.6240374360494718,-9.187258563610417,0.009771032112175771,0.0028250627767768136,0.001117598340311011,3.32350954208748,1.9433278892500359,0.010232452016997975
9.56049,-0.055012,1.915406,-0.016616,0.027336,0.017419,0.394767,-0.545495,-0.319633,-0.666655,-1.29025,-78.428424,-117.682465,3.19,2.8997722201090954,1.6263872331410467,-9.189526277049705,0.009402013496464898,0.0031179446393886758,0.001778769144260995,3.32472771225564,1.9161958315840266,0.01006396821490289
9.550963,-0.076394,1.906323,-0.001787,0.02093,0.016028,0.394842,-0.545438,-0.319599,-0.666674,-1.309355,-78.41855,-117.658912,3.2,2.89989928256643,1.628523509401685,-9.191568168177648,0.008908603999711752,0.003438285197546265,0.002315498508995397,3.3258840433339336,1.9078530927629098,0.009825811094688617
9.608899,-0.110345,1.970439,0.007765,0.018092,0.011624,0.394921,-0.545366,-0.319613,-0.66668,-1.310289,-78.410392,-117.648736,3.21,2.900016740270954,1.630366709047745,-9.193323883407777,0.008313751435196018,0.003760040432626035,0.002703598057702448,3.3268893428881796,1.9735262531180071,0.009516607033960102
9.550733,-0.106474,2.009841,0.001991,0.021067,0.011648,0.394976,-0.545304,-0.319589,-0.666709,-1.316235,-78.400664,-117.639226,3.22,2.9000613291636603,1.6318598188318756,-9.1947543660422,0.007642750193571147,0.004058592634962459,0.0029263343446491595,3.3276601661270186,2.012659324862755,0.009134945943713982
9.514972,-0.075811,1.985112,-0.009185,0.021964,0.01217,0.395016,-0.545253,-0.319537,-0.666751,-1.328131,-78.39028,-117.627774,3.23,2.8999683518677437,1.6329711240330729,-9.195844088954036,0.006921182269950609,0.004312770321906878,0.002975964642898084,3.3281242665742448,1.986559075453081,0.008680962931563466
9.509773,-0.037266,1.974008,-0.016585,0.011998,0.013819,0.39501,-0.545265,-0.319459,-0.666783,-1.352176,-78.38578,-117.611442,3.24,2.8996769473661193,1.6336951449262553,-9.1966013997799,0.006172905072754257,0.004506683518466523,0.00285474128131662,3.3282256873057925,1.9743597288285637,0.008158707076253338
9.552309,-0.061902,1.980574,-0.018053,0.013538,0.015628,0.395024,-0.545265,-0.319385,-0.66681,-1.379297,-78.380174,-117.589633,3.25,2.899135530209212,1.6340517551670057,-9.197056954714137,0.005418245723333901,0.004631234608503675,0.002575294669221798,3.327929079936323,1.981541124246479,0.00757877716724476
9.539725,-0.032735,1.990441,-0.014047,0.010643,0.017037,0.395057,-0.545266,-0.319331,-0.666815,-1.408375,-78.376132,-117.562272,3.2600000000000002,2.8983069143777884,1.634083597719721,-9.197260362415445,0.004672544429150986,0.004685184564125066,0.0021603407197808545,3.3272228921830176,1.990710163410535,0.006960653551775793
9.546987,-0.025488,1.970148,-0.008396,0.013018,0.015022,0.395095,-0.545248,-0.319292,-0.666826,-1.428267,-78.370828,-117.542193,3.27,2.8971726758247023,1.6338520290952272,-9.197275293341686,0.003945162501051943,0.004675681112479502,0.0016416982250450863,3.3261211593271605,1.9703128634935112,0.006334151410206435
9.589508,-0.049977,1.976753,-0.002023,0.012958,0.015756,0.395165,-0.545212,-0.319282,-0.666819,-1.446494,-78.365413,-117.517957,3.2800000000000002,2.8957363803688034,1.6334319327052307,-9.197173421970582,0.0032390347424690086,0.004618188600143616,0.0010586483501535005,3.3246637519262854,1.9773846675692617,0.005739316016626062
9.583254,-0.049748,2.032385,-0.004013,0.016071,0.011399,0.395207,-0.54517,-0.319262,-0.666838,-1.453552,-78.358411,-117.508417,3.29,2.8940253922235546,1.6329058332687394,-9.19702765546416,0.0025508035045809993,0.004535798161034342,0.00045572093007526627,3.322915050246963,2.0329937657870474,0.005223767322798164
9.602767,-0.073038,2.003754,-0.002744,0.015393,0.013008,0.395241,-0.545142,-0.319224,-0.666859,-1.467279,-78.351993,-117.494692,3.3000000000000003,2.8920910731359903,1.632357800710778,-9.196905162529793,0.001871525876744235,0.004457939711313088,-0.00011995503255423048,3.3209611206477883,2.0050846969542206,0.004836344155130048
9.641932,-0.046785,2.030896,-0.010284,0.018454,0.01446,0.39528,-0.545109,-0.319169,-0.666889,-1.486234,-78.34358,-117.476672,3.31,2.89000728214393,1.6318676425370384,-9.196860750462502,0.0011878997211858164,0.004418561662157304,-0.0006215551628976532,3.3189055565960803,2.0314348128948168,0.004617480236059965
9.615828,-0.096625,2.031542,-0.010601,0.024669,0.015885,0.395352,-0.545046,-0.319114,-0.666924,-1.507453,-78.331352,-117.453164,3.3200000000000003,2.887867195471576,1.6315058449039967,-9.196931143244441,0.00048391178799182626,0.004453886542132541,-0.0010055091054168143,3.31686422101309,2.033838560060508,0.004591549249417121
9.639434,-0.06079,2.002565,-0.008784,0.025747,0.016355,0.395413,-0.544989,-0.319045,-0.666968,-1.530199,-78.31873,-117.430395,3.33,2.885778588160785,1.631329639624215,-9.197130682979285,-0.0002572251221401461,0.0045998870865786535,-0.0012342811268238742,3.3149591932637312,2.0034874602365247,0.004769546715649893
9.608458,-0.070577,1.990942,-0.010053,0.026427,0.014747,0.395453,-0.54494,-0.318958,-0.667025,-1.552072,-78.305923,-117.412202,3.34,2.8838578503242887,1.6313804582950144,-9.197448904743275,-0.0010510063456615662,0.00488965430703355,-0.0012787830465966394,3.313312285400197,1.9921925510083105,0.005162230105407508
9.586536,-0.060717,1.990818,-0.008236,0.027505,0.015217,0.395515,-0.544874,-0.318891,-0.667075,-1.57113,-78.292309,-117.392875,3.35,2.8822231390349806,1.6316828990291947,-9.197850317984797,-0.0019096173099864059,0.005350844103076663,-0.0011202531363973562,3.3120385423743146,1.9917436740738002,0.005790780428891958
9.534219,-0.059122,1.976334,-0.00989,0.022235,0.018638,0.395573,-0.544835,-0.318816,-0.667108,-1.601344,-78.281661,-117.363552,3.36,2.8809871721780547,1.6322451886476674,-9.198276567413581,-0.002840142344917564,0.006003390719360367,-0.0007514784267336938,3.311240166783129,1.9772181190854994,0.0066836987136272225
9.541324,-0.051941,1.957081,-0.00939,0.022833,0.015601,0.395626,-0.544788,-0.318752,-0.667146,-1.62239,-78.270713,-117.342869,3.37,2.8802502313558724,1.6330609850068116,-9.198650949611729,-0.0038431674756830196,0.006857663205140096,-0.00017728756951657115,3.3110012950732854,1.95777013667131,0.007863136254929405
9.540868,-0.053699,1.959258,-0.011159,0.022916,0.017031,0.39568,-0.544745,-0.318679,-0.667183,-1.649154,-78.25968,-117.317217,3.38,2.8800939399117156,1.6341122412394662,-9.198885040416462,-0.004911917322021246,0.007913215057166967,0.0005857071340537505,3.311383988558992,1.959993748246407,0.009332146439390449
9.554197,-0.075782,1.985578,-0.002517,0.023365,0.013306,0.395745,-0.544679,-0.318644,-0.667216,-1.65982,-78.248462,-117.303112,3.39,2.880576312504038,1.6353727572576084,-9.198886960154645,-0.006032025019758249,0.00915823829963326,0.001510089921993907,3.312425689330964,1.9870236298564747,0.011069734692591622
9.54146,-0.046085,1.996375,-0.00337,0.02015,0.014067,0.395805,-0.544627,-0.318607,-0.66724,-1.674656,-78.239088,-117.285511,3.4,2.8817284412764335,1.6368119845897784,-9.198570592976782,-0.007181981102046443,0.010569783477420616,0.002559269523937975,3.3141382412564253,1.996906850068375,0.013032691042369714
9.591371,-0.061232,1.982312,0.000119,0.018825,0.009312,0.395856,-0.544564,-0.318601,-0.667265,-1.673153,-78.230536,-117.282292,3.41,2.8835530104964904,1.638398636806124,-9.197864912513026,-0.008334246867372963,0.012114749909290819,0.0036896411270721735,3.316508413592756,1.9832574777794236,0.015160484420280257
9.569619,-0.050634,1.98145,0.000419,0.020283,0.009692,0.395915,-0.544495,-0.318592,-0.66729,-1.67305,-78.221092,-117.277009,3.42,2.8860246453239697,1.6401036937143603,-9.196722480241213,-0.009456955952518553,0.013751590724829676,0.004853137619705731,3.3194997182637076,1.982096845377642,0.017380828752015846
9.561597,-0.060669,2.004867,-0.002569,0.022207,0.01141,0.395971,-0.544429,-0.318564,-0.667324,-1.678569,-78.210568,-117.26819,3.43,2.8890919314102965,1.6419024723590256,-9.195126200525626,-0.010516071451986807,0.015432619964253458,0.0060000037664505994,3.3230552082201044,2.005784738014027,0.01961513606737888
9.568722,-0.052684,1.985723,-0.003283,0.024644,0.008662,0.396015,-0.544356,-0.31853,-0.667373,-1.678059,-78.198751,-117.267058,3.44,2.8926808140958533,1.6437755642445788,-9.19309354788421,-0.011477821382982537,0.01710675961057599,0.007081615350094512,3.3271008998594906,1.9864217670436959,0.021783729800940413
9.539273,-0.051105,2.006676,-0.012992,0.024018,0.007356,0.396032,-0.544298,-0.318475,-0.667437,-1.678278,-78.187258,-117.269753,3.45,2.8966990108776947,1.6457085912264626,-9.190677718727004,-0.012311207572374593,0.018722527589070434,0.008053164298700973,3.33154947837435,2.007326652540886,0.02381076072777745
9.538859,-0.052107,2.008616,-0.005292,0.016756,0.009801,0.396071,-0.544252,-0.318456,-0.667461,-1.681805,-78.179828,-117.263888,3.46,2.9010410480391355,1.6476908913034305,-9.187965473090813,-0.012990375188550816,0.020231047352873944,0.008876041162031209,3.3363040082840625,2.009291759527471,0.025628679857605165
9.546077,-0.044146,1.989112,-0.008692,0.022575,0.00915,0.396104,-0.544193,-0.318412,-0.66751,-1.684583,-78.169131,-117.261452,3.47,2.9055935525052776,1.649713387663956,-9.185071778809625,-0.013496643007247726,0.021588858158027555,0.009519768577434936,3.341261461454031,1.9896018239487017,0.027182055897235578
9.54566,-0.044894,1.991096,-0.002464,0.019027,0.0042,0.39613,-0.544127,-0.318409,-0.66755,-1.671002,-78.160574,-117.272393,3.48,2.910240479406802,1.6517660006599741,-9.18213170279179,-0.013820026522956849,0.022760323031956162,0.009963373263627428,3.3463159696768296,1.9916020567502937,0.02843051607700062
9.530031,-0.063451,2.035623,-0.007572,0.018416,0.005063,0.396145,-0.544074,-0.318389,-0.667593,-1.662319,-78.152326,-117.281011,3.49,2.9148680200938726,1.6538350200633405,-9.179290268396805,-0.013960133195385575,0.023719466913966626,0.010196127680010953,3.3513617901017314,2.0366116535878906,0.029350629451218746
9.557201,-0.077139,1.985925,-0.007572,0.018417,0.005064,0.396157,-0.544023,-0.318365,-0.667639,-1.654335,-78.144118,-117.289613,3.5,2.91936900201262,1.6559008582811519,-9.17669118427718,-0.013926365563162414,0.024451126503049855,0.01021764187665914,3.3562960272253126,1.9874225848938116,0.029936623900945168
9.536914,-0.055646,2.017737,-0.010656,0.018022,0.002981,0.396156,-0.543974,-0.318341,-0.667691,-1.641797,-78.136131,-117.303977,3.5100000000000002,2.9236466524514344,1.6579365553556162,-9.17446543493949,-0.01373742708110495,0.024951350591886422,0.010037335771062694,3.361021179637957,2.0185041685577465,0.030199915704335355
9.557852,-0.067787,2.022417,-0.010008,0.022098,0.005643,0.39617,-0.543918,-0.318298,-0.667749,-1.637746,-78.125831,-117.310187,3.52,2.9276176491876114,1.6599073112016947,-9.172720708123617,-0.013420181373897678,0.02522704922084408,0.009673366425310574,3.3654475752291306,2.02355271719271,0.030167520589162212
9.536104,-0.057036,2.021522,-0.011164,0.017424,0.006019,0.396177,-0.543876,-0.318266,-0.667794,-1.633848,-78.118135,-117.31602,3.5300000000000002,2.9312144232814314,1.661771192735132,-9.17153253111375,-0.013007963566909506,0.02529494635904988,0.009151119465312866,3.369495732636775,2.022326457765907,0.029879498237649238
9.526672,-0.077245,2.011783,-0.010357,0.019481,0.003364,0.396176,-0.543826,-0.318232,-0.667851,-1.623706,-78.109349,-117.328848,3.54,2.9343867149770824,1.6634810199649712,-9.1709378160153,-0.01253847940597446,0.02517993958232686,0.008501396311135901,3.373098649138162,2.013265414473213,0.029385652322565032
9.556725,-0.069775,2.027668,-0.009994,0.014425,0.003831,0.396174,-0.543789,-0.318216,-0.667891,-1.613438,-78.103406,-117.340506,3.5500000000000003,2.9371024138261963,1.6649872937070898,-9.170931294715572,-0.012051452316883204,0.024913008333336744,0.0077584390308489725,3.376203974511867,2.0288681743398214,0.028741761660664025
9.547314,-0.089899,2.017834,-0.014911,0.020629,0.003088,0.39618,-0.543732,-0.318183,-0.667949,-1.603183,-78.093774,-117.352714,3.56,2.93934773763017,1.6662419051580324,-9.171465079803223,-0.011586189754767284,0.02452883805968606,0.006957933239378493,3.378775992754812,2.0198356076069657,0.02800565165382562
9.525588,-0.078926,2.016847,-0.013995,0.01733,0.002418,0.396168,-0.543691,-0.318151,-0.668006,-1.591177,-78.086189,-117.368491,3.5700000000000003,2.941126819980635,1.667202277257593,-9.17245133855089,-0.011179238334699512,0.024063339975479738,0.006135117984565101,3.380797303078418,2.018390728993026,0.027233423824485795
9.502516,-0.078411,1.982822,-0.012477,0.016948,0.002511,0.396159,-0.543648,-0.318124,-0.668059,-1.578868,-78.078793,-117.383751,3.58,2.9424607828207687,1.6678355369548026,-9.173767831398656,-0.01086228322930261,0.023551245158787298,0.0053231118362769125,3.3822700715299963,1.984371781850619,0.026476137654582517
9.532588,-0.070854,1.998621,-0.009742,0.014725,0.002315,0.396153,-0.543607,-0.318111,-0.668101,-1.564374,-78.0727,-117.399582,3.59,2.9433863701298413,1.6681223077304181,-9.175265860350297,-0.010660422898219194,0.023023937663024158,0.004551538673037145,3.383216717476724,1.9998765439288995,0.025777176458484572
9.533668,-0.06068,2.032876,-0.00797,0.014642,0.00089,0.396146,-0.543562,-0.318105,-0.668145,-1.546089,-78.066666,-117.418789,3.6,2.9439542136967654,1.6680597401007116,-9.176780009385594,-0.010590917901269504,0.022507665710686717,0.0038455075114285815,3.383679906387097,2.03378142723745,0.02517042879563054
9.553332,-0.083055,2.00422,-0.011261,0.015108,0.002223,0.396136,-0.543523,-0.318087,-0.668191,-1.532221,-78.060353,-117.43487,3.61,2.9442267931981214,1.6676634586607006,-9.178138947072869,-0.010662475299729851,0.02202223526629534,0.0032249706785073932,3.38372174109188,2.005940163969255,0.02467929621197987
9.553063,-0.083527,2.005483,-0.010598,0.01151,0.00307,0.39612,-0.543499,-0.31807,-0.668229,-1.521409,-78.056144,-117.44861,3.62,2.9442761409268083,1.6669681909140623,-9.179176505745508,-0.010875090870882322,0.021580249478237248,0.002704455793499628,3.383422075879709,2.007221667633647,0.024316431689947862
9.563247,-0.053757,2.050919,-0.008616,0.010569,-0.001774,0.396097,-0.543463,-0.31808,-0.668266,-1.495557,-78.05249,-117.475391,3.63,2.944181328430426,1.6660269495770568,-9.179742254517887,-0.011220432663501053,0.021186914100043225,0.002293141020966852,3.382875920189119,2.051623396145111,0.02408405974873864
9.553962,-0.073399,2.040523,-0.008271,0.013185,0.000509,0.396087,-0.543423,-0.318079,-0.668306,-1.476666,-78.047296,-117.495043,3.64,2.9440257627271,1.6649087603117165,-9.179710845914348,-0.011682713709070109,0.020840386547356513,0.001995221309064348,3.3821899520523058,2.041842679231189,0.023974745444393722
9.562721,-0.054179,2.053362,-0.008227,0.014343,0.00241,0.396085,-0.54338,-0.318072,-0.668345,-1.461682,-78.041415,-117.510488,3.65,2.943894319614558,1.6636950533623387,-9.178989534552443,-0.012239971245165716,0.020532607969373097,0.0018104972901821286,3.3814782264035324,2.0540766458642676,0.023972542346280337
9.553376,-0.073966,2.043242,-0.009235,0.015326,-0.000719,0.396062,-0.543339,-0.318057,-0.6684,-1.44108,-78.035135,-117.534312,3.66,2.9438703545186056,1.6624749603525744,-9.177523430710515,-0.012865646622248896,0.020250526321133833,0.0017351094571414949,3.3808572371534407,2.044580357853415,0.024054506524137643
9.58343,-0.066247,2.059065,-0.007928,0.015802,0.002794,0.396065,-0.543291,-0.318047,-0.668441,-1.426896,-78.028411,-117.548765,3.67,2.944032656269717,1.6613398654924885,-9.17529824418727,-0.013530345717821676,0.019977595892812894,0.0017623386937504696,3.380440567419745,2.060130418015811,0.024192569738905375
9.561738,-0.055175,2.057906,-0.007328,0.018718,0.00356,0.396062,-0.543242,-0.318018,-0.668496,-1.415801,-78.020137,-117.562309,3.68,2.944452440720284,1.660377642842555,-9.172340473131547,-0.014203655109025552,0.019695426336797495,0.0018833998204753916,3.380333429192309,2.058645522051089,0.024355714564104472
9.576778,-0.03748,2.016927,-0.009191,0.016485,0.001183,0.396057,-0.543192,-0.318007,-0.668545,-1.397984,-78.013043,-117.581217,3.69,2.9451905116573696,1.659667057801534,-9.168715177696898,-0.014855894576315538,0.019385452479673052,0.0020881663040060315,3.3806274406843766,2.0172752102102973,0.024512319556040586
9.530631,-0.063885,2.046969,-0.005256,0.020094,0.00252,0.396061,-0.543133,-0.317986,-0.668601,-1.383186,-78.003981,-117.597074,3.7,2.9462947385688874,1.6592728128955863,-9.164521633441408,-0.015459700842882942,0.019030504810121984,0.002365780016434167,3.3813960067009514,2.047965668702969,0.02463248624409787
9.530223,-0.064383,2.048851,-0.005768,0.019494,0.005556,0.396085,-0.543073,-0.317968,-0.668644,-1.37504,-77.995101,-117.604091,3.71,2.9477980082654742,1.6592416706652824,-9.159887274849808,-0.01599135889165903,0.01861617816963435,0.0027051180546656434,3.3826906478727867,2.0498623346190836,0.024690146061436956
9.551146,-0.076332,2.053552,-0.003482,0.020012,0.001096,0.396085,-0.543012,-0.317952,-0.668701,-1.356363,-77.986175,-117.623749,3.72,2.949716795700717,1.6595999918251927,-9.154960411255,-0.016431823088502256,0.018131920541515155,0.0030951072141418103,3.3845385664378367,2.0549701678924683,0.02466477328504537
9.535855,-0.066576,1.99824,-0.003332,0.015812,0.004977,0.396107,-0.542958,-0.317952,-0.668732,-1.345529,-77.979411,-117.632088,3.73,2.9520504672138475,1.6603528936482197,-9.149902225203682,-0.016767397737552273,0.01757179198880899,0.0035248938885688494,3.3869416429019723,1.9993487593153927,0.02454258294297719
9.520084,-0.085399,2.042408,-0.0084,0.01636,0.007732,0.396131,-0.542917,-0.317928,-0.668763,-1.346119,-77.972273,-117.631107,3.74,2.954781380432488,1.6614850762915327,-9.144878548869347,-0.01699007283211382,0.01693487263580521,0.003983891309859868,3.3898769394905766,2.044192610216806,0.024317151889155383
9.506139,-0.065725,2.019829,-0.009918,0.016744,0.007639,0.396146,-0.542877,-0.317896,-0.668801,-1.346165,-77.96494,-117.63218,3.75,2.9578757876001642,1.6629632017485878,-9.140051863227367,-0.017097533342552818,0.016225325347631117,0.004461735981404967,3.393298658420919,2.0208980589990184,0.023989454287331128
9.507087,-0.056257,2.054312,-0.006839,0.017135,0.009729,0.396174,-0.542837,-0.317865,-0.668832,-1.351072,-77.957407,-117.627105,3.7600000000000002,2.961285492853265,1.6647395599110213,-9.135573888139955,-0.017092877746782677,0.015452141315327853,0.004948190453092862,3.3971413824737917,2.055082150035127,0.02356734456096825
9.514499,-0.048257,2.034469,-0.012293,0.013911,0.008295,0.39618,-0.542813,-0.317829,-0.668865,-1.354419,-77.951688,-117.626194,3.77,2.9649501658870023,1.6667566351939578,-9.131579043092241,-0.016984092795200155,0.014628613827613705,0.005433030668361197,3.4013243254880074,2.035041240370819,0.02306455230080944
9.546533,-0.10241,1.997047,-0.00436,0.014611,0.011052,0.396204,-0.542785,-0.317796,-0.668889,-1.362679,-77.945677,-117.618429,3.7800000000000002,2.968800177222866,1.668952108518375,-9.12817897083331,-0.016783336786194328,0.013771596759738946,0.005905954045930506,3.4057562497639857,1.9996711050342755,0.022499279192550122
9.543053,-0.052948,2.018324,-0.001562,0.00587,0.010933,0.396235,-0.542771,-0.317805,-0.668878,-1.367459,-77.944527,-117.609765,3.79,2.9727597938678882,1.6712638027472477,-9.12545823876945,-0.01650608391832039,0.012900610137130338,0.006356540317001108,3.410340670726407,2.019018390129223,0.02189251362978965
9.526113,-0.082403,2.028821,-0.001709,0.010071,0.007053,0.396254,-0.542741,-0.317809,-0.668888,-1.362958,-77.941102,-117.611833,3.8000000000000003,2.976750557968699,1.6736341084932156,-9.12347127175266,-0.016170179165839068,0.012036856271922018,0.006774291394240107,3.4149809682454806,2.0304937587813465,0.021266208572764442
9.52465,-0.093752,1.99675,0.000255,0.006945,0.011411,0.396294,-0.542721,-0.317821,-0.668876,-1.367908,-77.93933,-117.60193,3.81,2.9806946654338033,1.6760135059418748,-9.122240529005376,-0.015794848157889518,0.0112022071216631,0.007148768917650542,3.4195850567934567,1.9989497242312024,0.02064150115096748
9.533556,-0.075231,2.008878,-0.001605,0.004713,0.009031,0.396313,-0.54271,-0.317833,-0.668868,-1.368195,-77.938881,-117.598699,3.8200000000000003,2.9845181676036723,1.678362912571287,-9.12175591818745,-0.015399700835738694,0.010418217250860373,0.007469837973651669,3.4240693274306166,2.0102861791906648,0.020037178340998617
