// General information: 
//  MT Manager version: 2025.0.0 
//  XDA version: 2025.0.0 build 241121001 rev 1732180523 built on 2024-11-21
// Device information: 
//  DeviceId: 00B4245A
//  ProductCode: MTW2-3A7G6
//  Firmware Version: 4.14.0
//  Hardware Version: 1.1.0
// Device settings: 
//  Filter Profile: human(46.1)
//  Option Flags: Orientation Smoother Disabled, Position/Velocity Smoother Disabled, Continuous Zero Rotation Update Disabled, AHS Disabled, ICC Disabled
// Coordinate system: ENU
PacketCounter	SampleTimeFine	Acc_X	Acc_Y	Acc_Z	Gyr_X	Gyr_Y	Gyr_Z	Quat_q0	Quat_q1	Quat_q2	Quat_q3	Roll	Pitch	Yaw
60468		9.746498	-0.116381	0.602201	-0.020693	0.016186	0.004824	0.435856	-0.553029	-0.400454	-0.586366	-10.441906	-86.058917	-97.001150
60469		9.790675	-0.149121	0.628068	-0.025238	0.017887	0.006308	0.435832	-0.553021	-0.400374	-0.586446	-10.417585	-86.050814	-97.035660
60470		9.792161	-0.147394	0.605376	-0.014724	0.014244	0.006432	0.435792	-0.553049	-0.400286	-0.586509	-10.432564	-86.046046	-97.033441
60471		9.749733	-0.072576	0.636399	-0.006837	0.017016	0.003754	0.435810	-0.552999	-0.400270	-0.586554	-10.378401	-86.038699	-97.087300
60472		9.747004	-0.097324	0.636030	-0.020017	0.029809	0.007093	0.435845	-0.552925	-0.400219	-0.586632	-10.318753	-86.025221	-97.148153
60473		9.678025	-0.104189	0.535102	-0.015735	0.024908	0.008495	0.435868	-0.552881	-0.400146	-0.586707	-10.296940	-86.012934	-97.174693
60474		9.699861	-0.090992	0.613674	-0.016200	0.014409	0.004863	0.435874	-0.552862	-0.400120	-0.586738	-10.281366	-86.008304	-97.192164
60475		9.718166	-0.123718	0.662193	-0.017928	0.014182	0.010923	0.435876	-0.552859	-0.400058	-0.586782	-10.296297	-86.001817	-97.183129
60476		9.715458	-0.148585	0.661263	-0.008068	0.021747	0.002440	0.435942	-0.552759	-0.400094	-0.586803	-10.212762	-85.993356	-97.256185
60477		9.765408	-0.151691	0.641540	-0.008290	0.015815	-0.000944	0.435939	-0.552706	-0.400089	-0.586858	-10.124483	-85.987150	-97.345073
60478		9.741094	-0.148988	0.641577	-0.013078	0.012950	0.000287	0.435891	-0.552692	-0.400061	-0.586925	-10.043768	-85.983780	-97.433274
60479		9.717740	-0.124805	0.668215	-0.014816	0.009913	0.001603	0.435867	-0.552675	-0.400043	-0.586972	-9.988467	-85.980635	-97.492853
60480		9.744474	-0.103599	0.673195	-0.016290	0.010078	0.000035	0.435820	-0.552668	-0.400025	-0.587025	-9.918304	-85.978892	-97.569501
60481		9.793774	-0.087817	0.703928	-0.020858	0.013144	0.004651	0.435794	-0.552662	-0.399973	-0.587086	-9.886573	-85.973617	-97.608922
60482		9.794383	-0.107516	0.654133	-0.020777	0.014666	0.004736	0.435831	-0.552593	-0.400008	-0.587100	-9.815746	-85.968877	-97.672365
60483		9.819413	-0.089420	0.684117	-0.020557	0.020597	0.008123	0.435831	-0.552571	-0.399932	-0.587173	-9.801507	-85.959052	-97.694072
60484		9.794103	-0.109068	0.658057	-0.017161	0.025150	0.005412	0.435811	-0.552541	-0.399849	-0.587271	-9.750959	-85.948218	-97.754561
60485		9.792265	-0.112168	0.684802	-0.015503	0.026665	0.004014	0.435825	-0.552482	-0.399786	-0.587360	-9.693165	-85.935363	-97.817032
60486		9.742716	-0.128996	0.657776	-0.018629	0.028121	0.008589	0.435859	-0.552413	-0.399738	-0.587432	-9.642614	-85.922566	-97.868639
60487		9.745100	-0.105762	0.663281	-0.020021	0.029809	0.007105	0.435876	-0.552360	-0.399646	-0.587532	-9.608315	-85.907633	-97.910151
60488		9.742312	-0.130786	0.663376	-0.021680	0.028294	0.008502	0.435873	-0.552335	-0.399540	-0.587630	-9.595061	-85.894706	-97.934019
60489		9.742113	-0.131752	0.666098	-0.018630	0.028122	0.008590	0.435894	-0.552288	-0.399451	-0.587719	-9.574307	-85.880584	-97.961154
60490		9.716006	-0.132496	0.691543	-0.014136	0.026340	0.008637	0.435940	-0.552224	-0.399409	-0.587774	-9.546974	-85.868763	-97.987834
60491		9.717526	-0.130869	0.669716	-0.014299	0.023296	0.008466	0.435963	-0.552181	-0.399344	-0.587841	-9.529416	-85.857379	-98.009275
60492		9.721660	-0.105035	0.650481	-0.015771	0.023463	0.006897	0.436018	-0.552116	-0.399322	-0.587876	-9.507132	-85.847360	-98.027946
60493		9.720639	-0.127266	0.625556	-0.008336	0.018544	0.005337	0.436039	-0.552068	-0.399294	-0.587925	-9.468250	-85.838957	-98.067338
60494		9.719675	-0.109062	0.678433	-0.007054	0.016694	0.009872	0.436053	-0.552054	-0.399244	-0.587962	-9.479287	-85.832434	-98.059774
60495		9.722152	-0.085796	0.682722	-0.007027	0.015333	0.006736	0.436075	-0.552015	-0.399223	-0.587996	-9.454832	-85.825714	-98.083949
60496		9.747119	-0.108103	0.634400	-0.008526	0.014059	0.003555	0.436089	-0.551973	-0.399227	-0.588022	-9.407525	-85.821283	-98.129295
60497		9.745295	-0.111214	0.659960	-0.004059	0.013637	0.006740	0.436117	-0.551933	-0.399218	-0.588046	-9.383747	-85.815520	-98.151086
60498		9.770280	-0.093048	0.689623	-0.007136	0.012370	0.005039	0.436139	-0.551881	-0.399242	-0.588061	-9.326149	-85.811894	-98.203884
60499		9.769329	-0.115057	0.663858	-0.004032	0.012276	0.003604	0.436154	-0.551838	-0.399245	-0.588088	-9.280019	-85.807190	-98.248071
60500		9.720802	-0.109905	0.662391	-0.006838	0.017017	0.003772	0.436180	-0.551791	-0.399239	-0.588117	-9.243646	-85.801065	-98.282254
60501		9.744902	-0.113160	0.665406	-0.005449	0.015327	0.005256	0.436202	-0.551746	-0.399227	-0.588152	-9.207458	-85.794481	-98.317285
60502		9.723184	-0.086736	0.668194	-0.003869	0.015321	0.003777	0.436213	-0.551713	-0.399213	-0.588184	-9.175216	-85.789294	-98.349679
60503		9.722228	-0.108750	0.642714	-0.006974	0.015414	0.005211	0.436232	-0.551670	-0.399195	-0.588222	-9.139668	-85.782663	-98.384945
60504		9.745430	-0.093044	0.696783	-0.008526	0.014060	0.003554	0.436239	-0.551634	-0.399191	-0.588253	-9.095126	-85.778205	-98.429052
60505		9.769538	-0.096382	0.699604	-0.010161	0.013985	0.006558	0.436249	-0.551606	-0.399164	-0.588291	-9.073678	-85.772259	-98.452010
60506		9.746976	-0.091737	0.675430	-0.009998	0.017030	0.006731	0.436289	-0.551550	-0.399167	-0.588311	-9.041118	-85.765830	-98.480126
60507		9.718271	-0.116450	0.697050	-0.008528	0.016861	0.008303	0.436315	-0.551513	-0.399133	-0.588349	-9.028694	-85.758099	-98.493095
60508		9.748515	-0.090727	0.654349	-0.007111	0.013811	0.006650	0.436344	-0.551474	-0.399135	-0.588363	-9.007319	-85.753489	-98.511241
60509		9.744011	-0.118069	0.677502	-0.005122	0.021415	0.005606	0.436381	-0.551411	-0.399109	-0.588413	-8.967058	-85.743423	-98.550165
60510		9.746483	-0.094522	0.682131	-0.005368	0.016849	0.005345	0.436399	-0.551370	-0.399094	-0.588447	-8.933602	-85.737196	-98.583083
60511		9.741965	-0.121635	0.705282	-0.002124	0.018359	0.002475	0.436429	-0.551303	-0.399092	-0.588490	-8.871847	-85.729134	-98.641839
60512		9.742652	-0.100434	0.734040	0.000870	0.018102	0.004094	0.436461	-0.551239	-0.399100	-0.588521	-8.815159	-85.722283	-98.694319
60513		9.741700	-0.122206	0.708833	-0.000543	0.018352	0.000997	0.436491	-0.551165	-0.399107	-0.588563	-8.741755	-85.714346	-98.763849
60514		9.739763	-0.125054	0.734899	-0.002099	0.019800	0.004087	0.436526	-0.551101	-0.399105	-0.588598	-8.692230	-85.706527	-98.809837
60515		9.767425	-0.123159	0.689914	-0.005205	0.019894	0.005518	0.436559	-0.551042	-0.399082	-0.588644	-8.654260	-85.697318	-98.846514
60516		9.741269	-0.123683	0.714474	-0.008451	0.018384	0.008387	0.436582	-0.551014	-0.399042	-0.588681	-8.655222	-85.689936	-98.847024
60517		9.742934	-0.122047	0.692120	-0.009951	0.019913	0.009952	0.436615	-0.550974	-0.398993	-0.588726	-8.653432	-85.680335	-98.850145
60518		9.723808	-0.071990	0.698109	-0.012944	0.020170	0.008332	0.436625	-0.550952	-0.398933	-0.588781	-8.650136	-85.671926	-98.858374
60519		9.744463	-0.121306	0.671717	-0.008451	0.018384	0.008388	0.436654	-0.550911	-0.398896	-0.588823	-8.637576	-85.663326	-98.871434
60520		9.745903	-0.079085	0.727564	-0.006787	0.019900	0.006998	0.436697	-0.550848	-0.398890	-0.588854	-8.602068	-85.655169	-98.903050
60521		9.743151	-0.103842	0.726488	-0.006976	0.015416	0.005210	0.436715	-0.550806	-0.398872	-0.588892	-8.568481	-85.648523	-98.936349
60522		9.722498	-0.096314	0.678116	-0.006836	0.017020	0.003773	0.436716	-0.550778	-0.398840	-0.588940	-8.538082	-85.642283	-98.969714
60523		9.743958	-0.123650	0.678581	-0.006754	0.018542	0.003861	0.436737	-0.550723	-0.398820	-0.588988	-8.491097	-85.633978	-99.016323
60524		9.718568	-0.102511	0.729820	-0.010166	0.013988	0.006551	0.436699	-0.550744	-0.398740	-0.589051	-8.498749	-85.629218	-99.020385
60525		9.744506	-0.103349	0.708585	-0.008501	0.015504	0.005163	0.436713	-0.550705	-0.398718	-0.589092	-8.465990	-85.622523	-99.053733
60526		9.773066	-0.080085	0.690244	-0.013134	0.015687	0.006542	0.436750	-0.550655	-0.398722	-0.589109	-8.439389	-85.616791	-99.076178
60527		9.770324	-0.104854	0.689037	-0.012994	0.017291	0.005105	0.436755	-0.550620	-0.398683	-0.589164	-8.407005	-85.609087	-99.111728
60528		9.746003	-0.102698	0.689078	-0.013135	0.015687	0.006542	0.436777	-0.550584	-0.398669	-0.589191	-8.386906	-85.603354	-99.130860
60529		9.746643	-0.081794	0.717691	-0.012936	0.017373	0.003581	0.436778	-0.550546	-0.398634	-0.589249	-8.343378	-85.595729	-99.177553
60530		9.722320	-0.079489	0.717732	-0.013077	0.015769	0.005017	0.436770	-0.550521	-0.398602	-0.589300	-8.307642	-85.590045	-99.217156
60531		9.765351	-0.133994	0.716735	-0.010086	0.015510	0.006641	0.436784	-0.550488	-0.398572	-0.589341	-8.287204	-85.583220	-99.239053
60532		9.745535	-0.105089	0.695305	-0.014602	0.015858	0.004968	0.436782	-0.550461	-0.398544	-0.589387	-8.254144	-85.577493	-99.274968
60533		9.745414	-0.105614	0.696924	-0.019035	0.017728	0.003384	0.436767	-0.550434	-0.398491	-0.589459	-8.212788	-85.569677	-99.322989
60534		9.721093	-0.103320	0.696972	-0.017652	0.016035	0.004870	0.436764	-0.550411	-0.398457	-0.589506	-8.185729	-85.563868	-99.353521
60535		9.699407	-0.076983	0.699766	-0.016127	0.015946	0.004920	0.436757	-0.550386	-0.398413	-0.589564	-8.156046	-85.556935	-99.388162
60536		9.723489	-0.080400	0.702885	-0.016128	0.015947	0.004920	0.436795	-0.550332	-0.398421	-0.589581	-8.124175	-85.551182	-99.415262
60537		9.716234	-0.131681	0.722700	-0.011682	0.011281	0.001752	0.436782	-0.550305	-0.398408	-0.589624	-8.073891	-85.547149	-99.468007
60538		9.742956	-0.110599	0.728517	-0.009767	0.017363	0.000634	0.436790	-0.550260	-0.398399	-0.589667	-8.023120	-85.540950	-99.518742
60539		9.768952	-0.110966	0.707300	-0.011682	0.011281	0.001751	0.436777	-0.550233	-0.398386	-0.589710	-7.973064	-85.536911	-99.571258
60540		9.765038	-0.116555	0.757007	-0.014484	0.016024	0.001920	0.436753	-0.550227	-0.398332	-0.589770	-7.951962	-85.531392	-99.600072
60541		9.742623	-0.111442	0.732835	-0.015987	0.017552	0.003484	0.436746	-0.550195	-0.398288	-0.589835	-7.910837	-85.523653	-99.646104
60542		9.744412	-0.109223	0.710254	-0.013020	0.015852	0.003495	0.436757	-0.550139	-0.398296	-0.589874	-7.844191	-85.517954	-99.710634
60543		9.740456	-0.114994	0.760168	-0.013020	0.015852	0.003495	0.436755	-0.550105	-0.398265	-0.589928	-7.803425	-85.511173	-99.754601
60544		9.769087	-0.091492	0.741917	-0.014627	0.014419	0.003355	0.436757	-0.550076	-0.398249	-0.589964	-7.770293	-85.506371	-99.788935
60545		9.744782	-0.089094	0.741698	-0.014627	0.014419	0.003355	0.436747	-0.550049	-0.398217	-0.590018	-7.731069	-85.500412	-99.832277
60546		9.744666	-0.089531	0.743161	-0.013020	0.015852	0.003496	0.436704	-0.550054	-0.398146	-0.590093	-7.708683	-85.494789	-99.865877
60547		9.720374	-0.087115	0.742777	-0.013350	0.009765	0.003135	0.436688	-0.550038	-0.398128	-0.590132	-7.671869	-85.491487	-99.906070
60548		9.720303	-0.087670	0.743640	-0.016604	0.008252	0.005992	0.436646	-0.550058	-0.398083	-0.590175	-7.661744	-85.489939	-99.924872
60549		9.717590	-0.112483	0.741685	-0.016439	0.011296	0.006174	0.436633	-0.550050	-0.398044	-0.590218	-7.647162	-85.485534	-99.944539
60550		9.719469	-0.110414	0.718208	-0.015267	0.003682	0.004246	0.436596	-0.550069	-0.398030	-0.590237	-7.632658	-85.486726	-99.964190
60551		9.722063	-0.086847	0.721595	-0.015102	0.006726	0.004428	0.436573	-0.550068	-0.398010	-0.590269	-7.609201	-85.485051	-99.991990
60552		9.720078	-0.090156	0.746273	-0.016853	0.003686	0.005720	0.436587	-0.550039	-0.398057	-0.590254	-7.571196	-85.486043	-100.023849
60553		9.717401	-0.114938	0.743784	-0.016770	0.005208	0.005811	0.436560	-0.550049	-0.398032	-0.590282	-7.560083	-85.485124	-100.040222
60554		9.743499	-0.115840	0.721638	-0.018439	0.003691	0.007194	0.436547	-0.550068	-0.398017	-0.590283	-7.575426	-85.486111	-100.027641
60555		9.772930	-0.071258	0.729577	-0.013638	0.006552	0.006005	0.436531	-0.550068	-0.397998	-0.590308	-7.562645	-85.484416	-100.043885
60556		9.722521	-0.068761	0.751453	-0.017698	0.013163	0.001644	0.436510	-0.550042	-0.397984	-0.590358	-7.503823	-85.480348	-100.106182
60557		9.745927	-0.093508	0.727170	-0.022539	0.011654	0.005973	0.436480	-0.550046	-0.397927	-0.590414	-7.491128	-85.475756	-100.127455
60558		9.748481	-0.070086	0.731219	-0.022478	0.011740	0.004448	0.436459	-0.550042	-0.397893	-0.590457	-7.470512	-85.472331	-100.153504
60559		9.722237	-0.070630	0.754951	-0.017882	0.012907	0.006219	0.436445	-0.550032	-0.397847	-0.590507	-7.455814	-85.467008	-100.174106
60560		9.722135	-0.071363	0.756185	-0.014832	0.012728	0.006322	0.436401	-0.550053	-0.397773	-0.590569	-7.454087	-85.462898	-100.187464
60561		9.719401	-0.095943	0.754326	-0.011763	0.009763	0.001666	0.436385	-0.550031	-0.397764	-0.590609	-7.406329	-85.459699	-100.237716
60562		9.677486	-0.122175	0.600538	-0.001587	0.000004	0.001473	0.436367	-0.550035	-0.397793	-0.590598	-7.382464	-85.463204	-100.260525
60563		9.606298	-0.070786	0.649539	0.013516	-0.006723	-0.002955	0.436374	-0.549997	-0.397907	-0.590551	-7.302355	-85.469707	-100.328697
60564		9.639708	-0.076467	0.872659	-0.003240	-0.008523	-0.008280	0.436314	-0.550005	-0.397986	-0.590535	-7.215471	-85.478777	-100.413954
60565		9.737086	-0.127550	0.800661	-0.025676	0.006089	-0.000598	0.436245	-0.550019	-0.397950	-0.590597	-7.162770	-85.477814	-100.477155
60566		9.757367	-0.079341	0.586414	-0.038412	0.003246	0.007954	0.436128	-0.550101	-0.397848	-0.590676	-7.164123	-85.478847	-100.497759
60567		9.678908	-0.080301	0.653782	-0.039240	-0.007752	0.013403	0.436036	-0.550214	-0.397764	-0.590696	-7.232418	-85.484750	-100.447387
60568		9.741038	-0.125420	0.751410	-0.030217	-0.012683	0.010383	0.435977	-0.550302	-0.397756	-0.590662	-7.284450	-85.494780	-100.402318
60569		9.674391	-0.109762	0.673217	-0.025059	-0.002300	0.011191	0.435928	-0.550363	-0.397708	-0.590674	-7.323918	-85.497738	-100.372708
60570		9.632616	-0.075673	0.623945	-0.017912	-0.010446	0.012504	0.435875	-0.550448	-0.397690	-0.590646	-7.381430	-85.506326	-100.322574
60571		9.699377	-0.093857	0.700244	-0.008784	-0.012421	0.011193	0.435851	-0.550504	-0.397712	-0.590597	-7.421267	-85.515032	-100.283241
60572		9.719052	-0.124491	0.721544	-0.001309	-0.018697	0.006499	0.435800	-0.550570	-0.397770	-0.590534	-7.431839	-85.528750	-100.272358
60573		9.792454	-0.112456	0.751879	0.004958	-0.016015	0.006890	0.435793	-0.550598	-0.397852	-0.590458	-7.436190	-85.539817	-100.260723
60574		9.825977	-0.061945	0.709627	0.008336	-0.014325	0.000987	0.435781	-0.550604	-0.397964	-0.590385	-7.394187	-85.551445	-100.293054
60575		9.750826	-0.077216	0.700635	0.011820	-0.009679	-0.003205	0.435776	-0.550578	-0.398080	-0.590334	-7.314680	-85.559654	-100.361586
60576		9.770473	-0.106715	0.722586	0.008732	-0.008150	-0.000164	0.435755	-0.550573	-0.398170	-0.590294	-7.251583	-85.567830	-100.417952
60577		9.749007	-0.079827	0.723160	0.007085	-0.008234	0.002835	0.435758	-0.550565	-0.398253	-0.590244	-7.217303	-85.574771	-100.443842
60578		9.773242	-0.083165	0.724110	0.005545	-0.005361	0.007545	0.435768	-0.550573	-0.398307	-0.590192	-7.224196	-85.580847	-100.430703
60579		9.777881	-0.057158	0.702375	0.005424	-0.005535	0.010595	0.435795	-0.550577	-0.398357	-0.590135	-7.245388	-85.585696	-100.401908
60580		9.728796	-0.073482	0.671484	0.007131	-0.005365	0.006071	0.435826	-0.550552	-0.398455	-0.590069	-7.219111	-85.591811	-100.415417
60581		9.724954	-0.079780	0.719385	0.008558	-0.004194	0.010789	0.435865	-0.550545	-0.398511	-0.590009	-7.238733	-85.595884	-100.386395
60582		9.724226	-0.101885	0.691943	0.001198	-0.001959	0.006056	0.435859	-0.550551	-0.398547	-0.589984	-7.228457	-85.600116	-100.393812
60583		9.704660	-0.072871	0.668850	0.002518	-0.003745	0.009063	0.435876	-0.550553	-0.398589	-0.589941	-7.238424	-85.604060	-100.377945
60584		9.728864	-0.076551	0.670165	0.004188	-0.002227	0.007682	0.435886	-0.550557	-0.398630	-0.589902	-7.242701	-85.608342	-100.368656
60585		9.726941	-0.080026	0.694125	0.007238	-0.002408	0.007782	0.435915	-0.550541	-0.398687	-0.589857	-7.239267	-85.611619	-100.363515
60586		9.753066	-0.081021	0.671384	0.007201	-0.001060	0.010925	0.435963	-0.550522	-0.398751	-0.589796	-7.251570	-85.614971	-100.340044
60587		9.753080	-0.081884	0.671083	0.002494	-0.005180	0.007446	0.435973	-0.550524	-0.398801	-0.589753	-7.250983	-85.619849	-100.334774
60588		9.751173	-0.085354	0.694835	0.002578	-0.003658	0.007539	0.435988	-0.550516	-0.398865	-0.589706	-7.237605	-85.624909	-100.340368
60589		9.751942	-0.064752	0.721770	0.002747	-0.000614	0.007724	0.436009	-0.550505	-0.398905	-0.589675	-7.234616	-85.627173	-100.337361
60590		9.773442	-0.092392	0.720283	0.002723	-0.002050	0.006107	0.436040	-0.550482	-0.398980	-0.589621	-7.218319	-85.631447	-100.343027
60591		9.776157	-0.068954	0.722894	0.000969	-0.005088	0.007396	0.436046	-0.550488	-0.399025	-0.589581	-7.218115	-85.636279	-100.338248
60592		9.773481	-0.093762	0.719589	0.001138	-0.002045	0.007581	0.436104	-0.550445	-0.399126	-0.589510	-7.198674	-85.640389	-100.341901
60593		9.776188	-0.070253	0.722344	0.005834	-0.002146	0.004682	0.436121	-0.550426	-0.399186	-0.589475	-7.172626	-85.643744	-100.360242
60594		9.757030	-0.080982	0.620771	0.007153	-0.003931	0.007689	0.436123	-0.550444	-0.399220	-0.589433	-7.190731	-85.649043	-100.338677
60595		9.774708	-0.013106	0.851325	-0.005277	-0.006331	0.008628	0.436113	-0.550469	-0.399246	-0.589400	-7.204488	-85.654495	-100.323482
60596		9.725900	-0.069486	0.742906	-0.013324	0.013999	0.009533	0.436091	-0.550473	-0.399185	-0.589453	-7.202709	-85.649359	-100.333377
60597		9.735480	-0.057077	0.622818	-0.015746	0.003007	0.016457	0.436094	-0.550509	-0.399138	-0.589449	-7.272129	-85.648939	-100.268374
60598		9.728882	-0.088202	0.668468	-0.000375	0.002265	0.013909	0.436102	-0.550525	-0.399133	-0.589432	-7.306755	-85.650163	-100.233608
60599		9.727311	-0.132012	0.614138	0.020840	-0.003410	0.011283	0.436177	-0.550490	-0.399222	-0.589349	-7.322728	-85.653761	-100.201187
60600		9.694294	-0.122460	0.759849	0.015754	-0.012265	0.010576	0.436214	-0.550487	-0.399332	-0.589250	-7.330216	-85.663471	-100.179167
60601		9.740007	-0.153269	0.759174	0.002346	-0.006788	0.008878	0.436225	-0.550497	-0.399381	-0.589200	-7.342122	-85.669164	-100.161451
60602		9.698241	-0.118850	0.710000	-0.005315	-0.004979	0.011771	0.436221	-0.550527	-0.399402	-0.589160	-7.374546	-85.674656	-100.127425
60603		9.723250	-0.101632	0.738174	-0.008450	-0.006317	0.011578	0.436211	-0.550565	-0.399410	-0.589126	-7.412587	-85.679882	-100.089703
60604		9.779034	-0.058004	0.722457	-0.010156	-0.006484	0.016103	0.436217	-0.550605	-0.399426	-0.589073	-7.473901	-85.685870	-100.026317
60605		9.779072	-0.059640	0.721800	-0.004057	-0.006852	0.016302	0.436232	-0.550644	-0.399436	-0.589019	-7.545776	-85.691042	-99.952139
60606		9.779091	-0.061053	0.721434	-0.002008	-0.000599	0.012149	0.436257	-0.550648	-0.399466	-0.588977	-7.572917	-85.693984	-99.919598
60607		9.750237	-0.086066	0.741079	0.001188	0.000824	0.010817	0.436285	-0.550642	-0.399489	-0.588946	-7.592882	-85.695205	-99.894464
60608		9.777135	-0.065840	0.745865	0.001481	0.004040	0.007953	0.436325	-0.550601	-0.399549	-0.588914	-7.566146	-85.695779	-99.911164
60609		9.793870	-0.120697	0.766109	-0.001750	0.003966	0.012428	0.436356	-0.550595	-0.399552	-0.588894	-7.596774	-85.695094	-99.877024
60610		9.747384	-0.113424	0.739132	-0.004921	0.003979	0.015378	0.436379	-0.550619	-0.399529	-0.588871	-7.666927	-85.695216	-99.806966
60611		9.773441	-0.115178	0.717013	-0.010934	0.005872	0.015271	0.436397	-0.550633	-0.399494	-0.588868	-7.722308	-85.693227	-99.753279
60612		9.753877	-0.087108	0.694831	-0.010969	0.007220	0.018414	0.436362	-0.550708	-0.399381	-0.588901	-7.821828	-85.691265	-99.668499
60613		9.730460	-0.064628	0.721023	-0.015570	0.006064	0.016646	0.436372	-0.550735	-0.399328	-0.588904	-7.889922	-85.689049	-99.604729
60614		9.749074	-0.117537	0.717089	-0.011229	0.002655	0.018135	0.436387	-0.550766	-0.399299	-0.588883	-7.963553	-85.689614	-99.532421
60615		9.710908	-0.038368	0.698885	-0.008119	0.002555	0.016710	0.436411	-0.550787	-0.399275	-0.588862	-8.031482	-85.689373	-99.464536
60616		9.727586	-0.094017	0.718951	-0.009705	0.002562	0.018185	0.436426	-0.550821	-0.399244	-0.588840	-8.110874	-85.689978	-99.386819
60617		9.730326	-0.071774	0.722158	-0.005130	0.002282	0.018335	0.436462	-0.550840	-0.399225	-0.588809	-8.189613	-85.689748	-99.306375
60618		9.729457	-0.094678	0.695235	-0.006473	0.002636	0.013711	0.436515	-0.550821	-0.399263	-0.588762	-8.218097	-85.690633	-99.268731
60619		9.755552	-0.096346	0.672754	-0.008233	-0.000400	0.014999	0.436527	-0.550848	-0.399250	-0.588737	-8.276431	-85.692188	-99.210531
60620		9.754436	-0.079270	0.724196	-0.006473	0.002636	0.013711	0.436500	-0.550899	-0.399196	-0.588745	-8.334128	-85.693111	-99.161044
60621		9.753574	-0.102010	0.697054	-0.005271	-0.002110	0.015005	0.436517	-0.550924	-0.399195	-0.588709	-8.392804	-85.695627	-99.100800
60622		9.730244	-0.079071	0.722498	-0.006587	-0.000320	0.011999	0.436498	-0.550967	-0.399171	-0.588700	-8.438938	-85.698352	-99.059068
60623		9.732172	-0.077515	0.698358	-0.006499	0.001202	0.012093	0.436509	-0.550979	-0.399168	-0.588682	-8.472793	-85.699230	-99.024423
60624		9.726570	-0.126868	0.692346	-0.008199	-0.001747	0.011855	0.436494	-0.551020	-0.399155	-0.588664	-8.517424	-85.702760	-98.982737
60625		9.756353	-0.082942	0.699591	-0.006850	-0.004884	0.011718	0.436491	-0.551051	-0.399165	-0.588631	-8.555617	-85.707115	-98.943943
60626		9.729393	-0.105268	0.694597	-0.008348	-0.003355	0.013286	0.436507	-0.551066	-0.399194	-0.588585	-8.589561	-85.711410	-98.905537
60627		9.754457	-0.088263	0.722874	-0.005414	-0.006500	0.011674	0.436505	-0.551097	-0.399212	-0.588545	-8.628587	-85.716682	-98.865082
60628		9.731166	-0.065388	0.748114	-0.009818	-0.000392	0.016475	0.436531	-0.551127	-0.399206	-0.588502	-8.706824	-85.719026	-98.784861
60629		9.729425	-0.109533	0.693496	-0.008497	-0.004964	0.014718	0.436532	-0.551167	-0.399203	-0.588465	-8.769102	-85.723157	-98.722859
60630		9.730318	-0.089534	0.720276	-0.011276	-0.002990	0.010137	0.436525	-0.551170	-0.399243	-0.588441	-8.752691	-85.727476	-98.736102
60631		9.726633	-0.136081	0.689705	-0.009962	-0.004782	0.013143	0.436518	-0.551209	-0.399240	-0.588411	-8.803768	-85.731639	-98.686176
60632		9.732284	-0.089381	0.695377	-0.008321	-0.001922	0.014906	0.436555	-0.551221	-0.399267	-0.588354	-8.860638	-85.734949	-98.622934
60633		9.751704	-0.120701	0.717793	-0.008437	-0.004877	0.013193	0.436552	-0.551257	-0.399268	-0.588321	-8.911521	-85.739155	-98.572324
60634		9.729485	-0.116363	0.691543	-0.010084	-0.004957	0.016193	0.436552	-0.551311	-0.399257	-0.588279	-8.994391	-85.744057	-98.490771
60635		9.749799	-0.126421	0.741058	-0.005238	-0.003458	0.011862	0.436557	-0.551334	-0.399268	-0.588246	-9.031842	-85.747573	-98.451791
60636		9.756515	-0.097892	0.695391	-0.009752	-0.003084	0.010188	0.436535	-0.551369	-0.399270	-0.588228	-9.056167	-85.751932	-98.429555
60637		9.751745	-0.126047	0.716306	-0.011370	-0.001730	0.014808	0.436535	-0.551406	-0.399252	-0.588206	-9.117597	-85.754200	-98.370054
60638		9.730418	-0.100379	0.717492	-0.011399	-0.003164	0.013188	0.436512	-0.551456	-0.399233	-0.588189	-9.168802	-85.758321	-98.323133
60639		9.756526	-0.101997	0.694646	-0.009784	-0.001738	0.013333	0.436513	-0.551486	-0.399223	-0.588167	-9.218229	-85.760722	-98.274758
60640		9.754586	-0.106101	0.718716	-0.008110	-0.000225	0.011952	0.436482	-0.551532	-0.399193	-0.588167	-9.256409	-85.763284	-98.242749
60641		9.708176	-0.098377	0.691274	-0.005150	-0.001938	0.011956	0.436491	-0.551550	-0.399201	-0.588139	-9.293029	-85.765921	-98.204556
60642		9.754578	-0.108370	0.718488	-0.003414	-0.000337	0.009051	0.436514	-0.551544	-0.399242	-0.588099	-9.302540	-85.768804	-98.188614
60643		9.732360	-0.103605	0.692324	-0.007094	-0.008015	0.013052	0.436509	-0.551587	-0.399254	-0.588055	-9.356385	-85.774773	-98.134264
60644		9.757479	-0.086407	0.720643	-0.011006	-0.001200	0.005659	0.436466	-0.551612	-0.399256	-0.588062	-9.338193	-85.778448	-98.156649
60645		9.730463	-0.108291	0.715723	-0.002279	-0.005174	0.011865	0.436475	-0.551633	-0.399280	-0.588018	-9.376741	-85.782920	-98.114872
60646		9.730478	-0.109251	0.715383	-0.003443	-0.001770	0.007431	0.436502	-0.551612	-0.399348	-0.587972	-9.359799	-85.786746	-98.122402
60647		9.704400	-0.109794	0.737579	-0.002248	-0.006519	0.008720	0.436500	-0.551631	-0.399383	-0.587932	-9.375961	-85.792272	-98.103053
60648		9.705428	-0.128936	0.685580	-0.005177	-0.006149	0.005572	0.436451	-0.551681	-0.399386	-0.587920	-9.386972	-85.798733	-98.096910
60649		9.754745	-0.114519	0.715253	-0.009902	-0.007468	0.006854	0.436420	-0.551715	-0.399406	-0.587897	-9.394462	-85.804970	-98.090655
60650		9.727753	-0.136456	0.709836	-0.014748	-0.008964	0.011186	0.436419	-0.551747	-0.399448	-0.587840	-9.429323	-85.812489	-98.051905
60651		9.731636	-0.092137	0.739131	-0.013132	-0.010317	0.006565	0.436373	-0.551796	-0.399465	-0.587816	-9.440165	-85.820364	-98.044143
60652		9.725950	-0.141197	0.732014	-0.011789	-0.010680	0.011189	0.436369	-0.551834	-0.399509	-0.587753	-9.480381	-85.828835	-98.000128
60653		9.751141	-0.124100	0.759749	-0.014718	-0.010308	0.008041	0.436323	-0.551890	-0.399518	-0.587729	-9.503701	-85.836565	-97.980762
60654		9.727070	-0.121958	0.756801	-0.016755	-0.017906	0.009040	0.436273	-0.551961	-0.399562	-0.587670	-9.535198	-85.849299	-97.950255
60655		9.725270	-0.125743	0.779372	-0.019564	-0.014580	0.007609	0.436203	-0.552039	-0.399567	-0.587645	-9.563724	-85.859484	-97.928454
60656		9.729260	-0.081292	0.807997	-0.019776	-0.019054	0.005797	0.436116	-0.552133	-0.399587	-0.587608	-9.588801	-85.873148	-97.910514
60657		9.734215	-0.055260	0.784858	-0.020077	-0.022275	0.008655	0.436033	-0.552237	-0.399604	-0.587560	-9.636344	-85.887578	-97.869942
60658		9.707337	-0.077108	0.777921	-0.014100	-0.025617	0.007131	0.435989	-0.552304	-0.399699	-0.587465	-9.655991	-85.904789	-97.845583
60659		9.704645	-0.101779	0.772265	-0.003398	-0.027640	0.004321	0.435929	-0.552378	-0.399789	-0.587378	-9.667417	-85.922665	-97.831638
60660		9.706765	-0.099113	0.745103	0.004040	-0.033943	-0.000400	0.435879	-0.552434	-0.399952	-0.587252	-9.641892	-85.945276	-97.846443
60661		9.679964	-0.119966	0.737078	0.009958	-0.037375	-0.000402	0.435822	-0.552499	-0.400116	-0.587122	-9.621136	-85.969105	-97.857087
60662		9.719046	-0.179870	0.778722	0.003858	-0.036985	-0.000591	0.435778	-0.552555	-0.400297	-0.586978	-9.599753	-85.993435	-97.865266
60663		9.675773	-0.146819	0.750738	-0.001198	-0.042955	0.001935	0.435686	-0.552664	-0.400433	-0.586850	-9.611658	-86.020193	-97.849574
60664		9.703170	-0.126452	0.750966	-0.009296	-0.045957	0.009136	0.435600	-0.552810	-0.400547	-0.586699	-9.696521	-86.048623	-97.762656
60665		9.652264	-0.145456	0.740343	-0.011178	-0.049170	0.013474	0.435501	-0.552983	-0.400636	-0.586548	-9.818853	-86.077768	-97.642008
60666		9.677878	-0.128745	0.764119	-0.008311	-0.052406	0.013375	0.435411	-0.553159	-0.400749	-0.586372	-9.953576	-86.109370	-97.505821
60667		9.704254	-0.130419	0.736142	-0.005502	-0.055733	0.014800	0.435320	-0.553342	-0.400865	-0.586189	-10.097335	-86.142047	-97.360444
60668		9.676888	-0.134406	0.777509	-0.004105	-0.058782	0.013129	0.435230	-0.553522	-0.401009	-0.585987	-10.235002	-86.177197	-97.218151
60669		9.682054	-0.108715	0.750472	-0.002801	-0.063353	0.011362	0.435120	-0.553714	-0.401159	-0.585784	-10.364838	-86.214474	-97.085188
60670		9.730288	-0.097717	0.798161	0.004363	-0.071447	0.011104	0.434970	-0.553954	-0.401301	-0.585571	-10.526234	-86.256877	-96.925704
60671		9.752094	-0.125933	0.789400	0.001127	-0.074291	0.010827	0.434847	-0.554169	-0.401487	-0.585332	-10.672893	-86.300325	-96.773641
60672		9.758570	-0.078805	0.787969	-0.000714	-0.080186	0.008877	0.434652	-0.554438	-0.401641	-0.585116	-10.824052	-86.347791	-96.627770
60673		9.731591	-0.082188	0.827181	-0.002187	-0.079997	0.007312	0.434498	-0.554669	-0.401840	-0.584875	-10.958546	-86.394779	-96.489817
60674		9.735224	-0.059007	0.822066	-0.004283	-0.087681	0.009844	0.434313	-0.554944	-0.402031	-0.584621	-11.132263	-86.446268	-96.316710
60675		9.755480	-0.089892	0.836054	-0.004087	-0.085980	0.006892	0.434141	-0.555195	-0.402238	-0.584367	-11.282946	-86.496618	-96.163645
60676		9.779702	-0.057225	0.931556	-0.004472	-0.090720	0.009658	0.433943	-0.555480	-0.402432	-0.584110	-11.466791	-86.549720	-95.981377
60677		9.756721	-0.073471	0.869224	0.003642	-0.106697	0.011996	0.433765	-0.555785	-0.402692	-0.583772	-11.711376	-86.611047	-95.729824
60678		9.718242	0.003784	0.864848	0.010468	-0.119443	0.012958	0.433607	-0.556103	-0.403018	-0.583361	-12.008322	-86.679662	-95.417462
60679		9.634379	-0.028946	0.991217	0.006766	-0.131230	0.009074	0.433380	-0.556467	-0.403349	-0.582955	-12.295167	-86.754932	-95.121820
60680		9.644852	-0.116184	1.066531	0.001115	-0.150430	0.003158	0.433070	-0.556899	-0.403708	-0.582524	-12.594688	-86.841821	-94.819121
60681		9.601113	-0.104950	1.000942	-0.014991	-0.159100	0.011390	0.432732	-0.557395	-0.404029	-0.582078	-13.014757	-86.932172	-94.402591
60682		9.436222	-0.115748	0.825896	-0.022692	-0.177845	0.025379	0.432356	-0.557999	-0.404317	-0.581579	-13.650485	-87.031096	-93.777626
60683		9.384941	-0.138923	0.827121	0.000288	-0.200892	0.027648	0.432022	-0.558615	-0.404726	-0.580950	-14.420017	-87.141913	-93.002494
60684		9.305360	-0.185673	0.846007	-0.009581	-0.236791	0.023708	0.431560	-0.559352	-0.405189	-0.580261	-15.302754	-87.272766	-92.122075
60685		9.276681	-0.199449	0.943018	-0.021912	-0.259343	0.029730	0.431051	-0.560189	-0.405653	-0.579507	-16.458700	-87.414147	-90.973019
60686		9.309452	-0.158121	0.924491	-0.031640	-0.287012	0.041648	0.430559	-0.561099	-0.406184	-0.578620	-18.006951	-87.567394	-89.423369
60687		9.367428	-0.102450	0.955155	-0.030848	-0.320918	0.044233	0.429940	-0.562160	-0.406712	-0.577678	-19.975818	-87.736349	-87.466101
60688		9.440766	-0.106484	1.050100	-0.018562	-0.345771	0.036867	0.429296	-0.563235	-0.407368	-0.576648	-22.266536	-87.917026	-85.176827
60689		9.511786	-0.164294	0.987965	0.003045	-0.369437	0.025127	0.428616	-0.564321	-0.408150	-0.575538	-24.989936	-88.108832	-82.445608
60690		9.488537	-0.171564	1.023828	0.009240	-0.393707	0.014608	0.427868	-0.565439	-0.409026	-0.574373	-28.345148	-88.310290	-79.079739
60691		9.467559	-0.172378	1.009378	-0.002711	-0.412568	0.010293	0.427038	-0.566627	-0.409923	-0.573180	-32.758815	-88.514982	-74.661502
60692		9.398448	-0.167089	0.992267	-0.015389	-0.439843	0.019283	0.426197	-0.567874	-0.410889	-0.571878	-39.045130	-88.717857	-68.364329
60693		9.430181	-0.148755	0.952836	-0.031012	-0.465395	0.028387	0.425226	-0.569305	-0.411762	-0.570550	-48.426812	-88.904425	-58.993983
60694		9.430868	-0.178891	0.929313	-0.032349	-0.483989	0.033461	0.424231	-0.570795	-0.412653	-0.569157	-61.769028	-89.052544	-45.663206
60695		9.411488	-0.176454	0.857988	-0.028305	-0.513720	0.039432	0.423193	-0.572373	-0.413600	-0.567654	-79.913064	-89.133708	-27.528722
60696		9.415327	-0.186332	0.856869	-0.017840	-0.539122	0.042616	0.422183	-0.573965	-0.414662	-0.566022	-100.281309	-89.113665	-7.155236
60697		9.416236	-0.223092	0.874787	-0.010310	-0.562441	0.039781	0.421091	-0.575636	-0.415756	-0.564334	-118.448056	-88.987321	11.012483
60698		9.375959	-0.196368	0.824164	-0.012372	-0.591412	0.039695	0.419959	-0.577353	-0.416936	-0.562550	-132.173413	-88.775804	24.744239
60699		9.408744	-0.188314	0.842398	-0.017398	-0.618755	0.041279	0.418726	-0.579190	-0.418117	-0.560701	-141.829354	-88.501055	34.397334
60700		9.437652	-0.192752	0.757921	-0.010134	-0.645411	0.042821	0.417526	-0.581018	-0.419440	-0.558713	-148.611302	-88.185921	41.194969
60701		9.425441	-0.148709	0.726481	0.001725	-0.672665	0.048861	0.416248	-0.582970	-0.420756	-0.556640	-153.419630	-87.835383	46.011602
60702		9.357654	-0.143261	0.664728	0.022338	-0.704748	0.048328	0.415020	-0.584876	-0.422285	-0.554395	-157.091880	-87.460829	49.719764
60703		9.311212	-0.167783	0.621099	0.033534	-0.739174	0.046263	0.413676	-0.586926	-0.423825	-0.552053	-159.898518	-87.056794	52.553279
60704		9.297937	-0.153300	0.627454	0.040068	-0.775010	0.047282	0.412330	-0.588991	-0.425513	-0.549556	-162.136201	-86.630275	54.834009
60705		9.282032	-0.163057	0.627795	0.041774	-0.815389	0.052779	0.410854	-0.591230	-0.427202	-0.546942	-163.895938	-86.174032	56.625639
60706		9.317324	-0.153078	0.599678	0.049782	-0.853176	0.058268	0.409424	-0.593462	-0.429072	-0.544125	-165.321204	-85.695921	58.107714
60707		9.275163	-0.184396	0.592407	0.074627	-0.892344	0.066166	0.407901	-0.595850	-0.430952	-0.541166	-166.438503	-85.190031	59.275897
60708		9.266994	-0.203930	0.654776	0.095461	-0.941719	0.068998	0.406382	-0.598261	-0.433028	-0.537981	-167.391931	-84.657742	60.302934
60709		9.184782	-0.207802	0.672046	0.093825	-0.986770	0.077646	0.404725	-0.600862	-0.435099	-0.534651	-168.157019	-84.094807	61.130195
60710		9.134053	-0.282498	0.601734	0.116582	-1.031987	0.083636	0.403161	-0.603399	-0.437446	-0.531048	-168.816531	-83.509148	61.892249
60711		9.138378	-0.198869	0.590281	0.143906	-1.082610	0.096731	0.401474	-0.606162	-0.439763	-0.527253	-169.300824	-82.888559	62.467480
60712		9.040703	-0.241429	0.498091	0.147481	-1.120648	0.107258	0.399832	-0.608895	-0.442257	-0.523249	-169.709562	-82.249607	62.993336
60713		8.960700	-0.256246	0.330430	0.147941	-1.180059	0.118494	0.397972	-0.611913	-0.444685	-0.519071	-170.020896	-81.570971	63.397901
60714		8.845127	-0.226017	0.541147	0.126234	-1.242160	0.123619	0.396030	-0.614987	-0.447300	-0.514660	-170.325481	-80.860991	63.811361
60715		8.820984	-0.175706	0.638957	0.102320	-1.304827	0.141451	0.393778	-0.618420	-0.449753	-0.510115	-170.554891	-80.109145	64.107921
60716		8.797069	-0.111585	0.560399	0.091342	-1.354553	0.154508	0.391538	-0.621828	-0.452409	-0.505325	-170.762534	-79.333666	64.410055
60717		8.955406	-0.004953	0.475346	0.088853	-1.392700	0.165997	0.389071	-0.625509	-0.454884	-0.500444	-170.901542	-78.529564	64.608104
60718		9.168168	-0.033562	0.381513	0.106947	-1.441870	0.176630	0.386704	-0.629093	-0.457635	-0.495249	-171.016417	-77.702435	64.826742
60719		9.506892	-0.017550	0.355664	0.117077	-1.496845	0.189381	0.384102	-0.632964	-0.460261	-0.489880	-171.082211	-76.837171	64.967529
60720		9.786381	0.028988	0.357918	0.085523	-1.531443	0.200072	0.381527	-0.636720	-0.463097	-0.484321	-171.162003	-75.958686	65.152836
60721		9.894605	0.118372	0.143425	0.023324	-1.549765	0.213934	0.378517	-0.640879	-0.465465	-0.478897	-171.220137	-75.061237	65.231286
60722		9.898210	0.133305	-0.209294	-0.044662	-1.549160	0.229887	0.375534	-0.644900	-0.467894	-0.473449	-171.288592	-74.169802	65.333762
60723		9.944914	0.183354	-0.494993	-0.086203	-1.536661	0.238684	0.372213	-0.649213	-0.469841	-0.468219	-171.342197	-73.277600	65.342799
60724		9.992635	0.137301	-0.871300	-0.092893	-1.539428	0.240625	0.369053	-0.653239	-0.472048	-0.462871	-171.412979	-72.392663	65.416350
60725		10.168828	-0.051912	-1.386931	-0.036809	-1.564184	0.219816	0.365737	-0.657400	-0.474166	-0.457414	-171.471314	-71.486480	65.460219
60726		10.310698	-0.344204	-1.760635	0.047406	-1.570100	0.199568	0.362832	-0.661049	-0.476846	-0.451648	-171.527821	-70.587851	65.606645
60727		10.515672	-0.615125	-1.875075	0.127504	-1.557680	0.190996	0.359960	-0.664744	-0.479363	-0.445820	-171.527898	-69.687775	65.689150
60728		10.730048	-0.721850	-2.393188	0.170166	-1.493346	0.179507	0.357456	-0.667980	-0.482038	-0.440077	-171.514592	-68.834182	65.811742
60729		10.647130	-0.810671	-3.168391	0.187604	-1.426292	0.164437	0.354998	-0.671136	-0.484488	-0.434540	-171.484566	-68.010830	65.899846
60730		10.054872	-0.942418	-4.064238	0.172209	-1.371352	0.147018	0.352641	-0.674033	-0.486907	-0.429238	-171.474247	-67.227361	66.013786
60731		9.464209	-1.064245	-4.576642	0.165489	-1.339360	0.137949	0.350227	-0.676910	-0.489197	-0.424052	-171.469462	-66.455538	66.116566
60732		9.213273	-1.115878	-4.864173	0.179843	-1.316010	0.136770	0.347933	-0.679654	-0.491441	-0.418925	-171.447062	-65.703142	66.210683
60733		9.023414	-1.148517	-5.543877	0.166638	-1.269588	0.142008	0.345672	-0.682332	-0.493555	-0.413929	-171.418320	-64.970535	66.289029
60734		8.844314	-1.012912	-6.180938	0.129131	-1.237854	0.150457	0.343391	-0.684990	-0.495459	-0.409134	-171.389244	-64.260624	66.342990
60735		8.816852	-0.764266	-6.469849	0.002839	-1.201324	0.160193	0.340748	-0.687801	-0.497018	-0.404713	-171.417705	-63.565156	66.381457
60736		8.946163	-0.543065	-6.756886	-0.129030	-1.184211	0.161888	0.337706	-0.690774	-0.498226	-0.400696	-171.511086	-62.884358	66.406467
60737		9.225254	-0.370937	-7.320547	-0.199543	-1.162286	0.154759	0.334428	-0.693786	-0.499294	-0.396893	-171.649015	-62.211426	66.438083
60738		9.415860	-0.352003	-7.920569	-0.162832	-1.097548	0.128110	0.331394	-0.696514	-0.500373	-0.393285	-171.777452	-61.581917	66.481288
60739		9.673399	-0.528849	-8.306923	-0.033977	-1.060905	0.077384	0.328772	-0.698814	-0.501835	-0.389524	-171.878754	-60.972731	66.579685
60740		10.097176	-0.829270	-8.245636	0.134483	-1.047353	0.018230	0.326664	-0.700639	-0.503771	-0.385501	-171.935248	-60.379887	66.736489
60741		10.447222	-1.118104	-8.033566	0.234472	-1.025184	-0.027036	0.324850	-0.702127	-0.506033	-0.381340	-171.974304	-59.799239	66.941670
60742		10.653369	-1.296595	-7.977982	0.241322	-0.972250	-0.064842	0.323128	-0.703387	-0.508319	-0.377422	-172.031846	-59.255041	67.172723
60743		10.655382	-1.322185	-7.893720	0.182753	-0.898431	-0.070361	0.321355	-0.704574	-0.510405	-0.373889	-172.115225	-58.749539	67.397342
60744		10.454564	-1.268637	-7.841435	0.070118	-0.820140	-0.065648	0.319401	-0.705792	-0.512108	-0.370927	-172.241881	-58.291076	67.597001
60745		10.220198	-1.145704	-7.633403	-0.046706	-0.739562	-0.059398	0.317234	-0.707054	-0.513456	-0.368510	-172.416785	-57.874437	67.776775
60746		10.237399	-1.099919	-7.885847	-0.151629	-0.631316	-0.055485	0.314990	-0.708283	-0.514401	-0.366754	-172.629461	-57.521595	67.929806
60747		10.252375	-1.070315	-8.040774	-0.187689	-0.535189	-0.056916	0.312848	-0.709384	-0.515146	-0.365411	-172.851014	-57.220267	68.070471
60748		10.431921	-1.002677	-8.366646	-0.139709	-0.443382	-0.058719	0.311118	-0.710231	-0.515822	-0.364288	-173.032407	-56.973634	68.195517
60749		10.459795	-0.901261	-8.437120	-0.085457	-0.361884	-0.051558	0.309791	-0.710862	-0.516459	-0.363284	-173.167292	-56.770047	68.303430
60750		10.550107	-0.814749	-8.275039	-0.028629	-0.293242	-0.047210	0.308861	-0.711288	-0.517061	-0.362384	-173.256355	-56.607424	68.394855
60751		10.686227	-0.715954	-8.187051	-0.018791	-0.224065	-0.045077	0.308138	-0.711579	-0.517580	-0.361686	-173.331346	-56.481631	68.477166
60752		10.709402	-0.669517	-8.342681	-0.030532	-0.146169	-0.037950	0.307596	-0.711764	-0.517919	-0.361298	-173.397633	-56.401715	68.540297
60753		10.577970	-0.586004	-8.295855	-0.018227	-0.077079	-0.038208	0.307267	-0.711806	-0.518188	-0.361111	-173.451058	-56.359033	68.597254
60754		10.377500	-0.560719	-8.199799	-0.023148	0.006841	-0.042567	0.307138	-0.711691	-0.518322	-0.361253	-173.501857	-56.366203	68.647008
60755		10.310752	-0.585402	-8.066541	-0.059248	0.087931	-0.053715	0.307063	-0.711457	-0.518319	-0.361783	-173.575955	-56.418402	68.700557
60756		10.424692	-0.670161	-8.045223	-0.091682	0.160725	-0.070957	0.307036	-0.711095	-0.518195	-0.362692	-173.675975	-56.514679	68.762272
60757		10.451890	-0.833407	-7.994672	-0.030515	0.253848	-0.092994	0.307421	-0.710414	-0.518128	-0.363797	-173.752318	-56.663744	68.838112
60758		10.418485	-0.907663	-7.707077	0.036684	0.319253	-0.122237	0.308166	-0.709431	-0.518176	-0.365013	-173.809437	-56.853191	68.936335
60759		10.359984	-0.849619	-7.319485	0.019070	0.394932	-0.138958	0.309007	-0.708293	-0.518141	-0.366559	-173.885774	-57.085353	69.045724
60760		10.338607	-0.722042	-7.167665	-0.051761	0.494678	-0.133128	0.309870	-0.707091	-0.517792	-0.368638	-173.989090	-57.375118	69.138142
60761		10.248882	-0.650563	-7.055603	-0.088664	0.581271	-0.137545	0.310811	-0.705771	-0.517259	-0.371115	-174.111826	-57.713173	69.228660
60762		10.257041	-0.672328	-6.803588	-0.066503	0.656704	-0.143194	0.312016	-0.704254	-0.516658	-0.373814	-174.221663	-58.095563	69.318140
60763		10.248140	-0.766447	-6.598301	-0.028887	0.728927	-0.154726	0.313510	-0.702506	-0.516055	-0.376675	-174.316715	-58.518592	69.415622
60764		10.237874	-0.836393	-6.496197	0.000342	0.773107	-0.162910	0.315205	-0.700596	-0.515453	-0.379630	-174.400667	-58.968236	69.518845
60765		10.161001	-0.893137	-6.461301	0.010631	0.826793	-0.162287	0.317066	-0.698559	-0.514782	-0.382733	-174.476283	-59.447342	69.619133
60766		9.968561	-0.826918	-6.227666	-0.002633	0.887474	-0.162963	0.319033	-0.696411	-0.513975	-0.386082	-174.556852	-59.961995	69.715450
60767		9.707377	-0.795582	-6.099642	-0.045682	0.928457	-0.154725	0.320961	-0.694259	-0.512987	-0.389656	-174.653659	-60.498534	69.801941
60768		9.301440	-0.683702	-6.108220	-0.081937	0.974930	-0.146662	0.322895	-0.692080	-0.511808	-0.393469	-174.761570	-61.061957	69.876520
60769		8.944950	-0.631337	-6.068305	-0.099320	1.028950	-0.141712	0.324904	-0.689817	-0.510482	-0.397489	-174.873181	-61.655004	69.943914
60770		8.669638	-0.617751	-6.186962	-0.096312	1.071602	-0.145362	0.327019	-0.687436	-0.509087	-0.401648	-174.986252	-62.273202	70.014249
60771		8.557585	-0.615309	-6.003895	-0.093393	1.117322	-0.150378	0.329237	-0.684925	-0.507630	-0.405948	-175.103271	-62.916989	70.090789
60772		8.627519	-0.528423	-5.600611	-0.103202	1.135639	-0.151576	0.331456	-0.682367	-0.506107	-0.410327	-175.229966	-63.571615	70.171202
60773		8.855635	-0.500887	-5.117603	-0.086976	1.140207	-0.143564	0.333747	-0.679771	-0.504569	-0.414651	-175.342668	-64.227995	70.246155
60774		9.061345	-0.443881	-4.781860	-0.072562	1.154311	-0.133166	0.336133	-0.677125	-0.502983	-0.418956	-175.437579	-64.892098	70.310043
60775		9.198445	-0.447108	-4.552903	-0.074533	1.185893	-0.132593	0.338581	-0.674394	-0.501322	-0.423357	-175.534222	-65.573960	70.374337
60776		9.180190	-0.496185	-4.339015	-0.071380	1.198051	-0.129065	0.341066	-0.671617	-0.499616	-0.427771	-175.627749	-66.262713	70.436708
60777		9.109417	-0.512013	-4.127882	-0.056623	1.200071	-0.132980	0.343584	-0.668776	-0.497935	-0.432145	-175.722314	-66.952599	70.509233
60778		9.053695	-0.510935	-3.818222	-0.026668	1.207224	-0.141243	0.346190	-0.665824	-0.496314	-0.436467	-175.815063	-67.646945	70.597865
60779		8.876276	-0.488056	-3.541259	-0.024691	1.213678	-0.148558	0.348789	-0.662811	-0.494693	-0.440802	-175.922434	-68.345150	70.703203
60780		8.714370	-0.537961	-3.388439	-0.008302	1.234994	-0.168927	0.351438	-0.659647	-0.493119	-0.445186	-176.055175	-69.056366	70.845267
60781		8.626073	-0.508691	-3.073361	0.016188	1.272647	-0.186888	0.354206	-0.656286	-0.491574	-0.449647	-176.207402	-69.789574	71.022517
60782		8.510172	-0.439920	-2.979383	0.017535	1.318137	-0.198699	0.357048	-0.652762	-0.489968	-0.454257	-176.385587	-70.549198	71.227181
60783		8.302096	-0.399835	-2.987230	-0.014811	1.354779	-0.194199	0.359869	-0.649195	-0.488188	-0.459035	-176.586832	-71.329234	71.435817
60784		8.072260	-0.411235	-2.892902	-0.037279	1.390362	-0.185314	0.362706	-0.645578	-0.486236	-0.463948	-176.799362	-72.129140	71.641430
60785		7.872221	-0.446193	-2.942827	-0.041914	1.411971	-0.173669	0.365590	-0.641914	-0.484176	-0.468896	-177.010656	-72.940743	71.842413
60786		7.665319	-0.387106	-2.908089	-0.040612	1.425246	-0.158615	0.368527	-0.638222	-0.482020	-0.473833	-177.210617	-73.759317	72.031179
60787		7.535117	-0.470160	-2.812427	-0.014087	1.430545	-0.145889	0.371572	-0.634465	-0.479853	-0.478674	-177.388860	-74.580365	72.212672
60788		7.478648	-0.547155	-2.638219	0.020322	1.420401	-0.145493	0.374683	-0.630642	-0.477758	-0.483375	-177.565923	-75.395198	72.412044
60789		7.347272	-0.467405	-2.434155	0.025867	1.395550	-0.144927	0.377736	-0.626833	-0.475701	-0.487959	-177.763981	-76.195857	72.636214
60790		7.245636	-0.318448	-2.236694	-0.058955	1.386311	-0.136018	0.380503	-0.623201	-0.473401	-0.492675	-178.015757	-76.990528	72.864479
60791		7.239291	-0.305428	-2.078082	-0.110900	1.385525	-0.127979	0.383110	-0.619656	-0.470929	-0.497473	-178.309210	-77.784627	73.104622
60792		7.263130	-0.291960	-2.001300	-0.103152	1.397322	-0.116820	0.385775	-0.616065	-0.468395	-0.502242	-178.601793	-78.584687	73.347386
60793		7.244866	-0.328723	-1.846748	-0.052261	1.383598	-0.117131	0.388547	-0.612377	-0.465995	-0.506828	-178.906904	-79.376964	73.632241
60794		7.220000	-0.390312	-1.696363	0.014693	1.354178	-0.131594	0.391398	-0.608576	-0.463841	-0.511170	-179.267008	-80.151706	74.010750
60795		7.169384	-0.437619	-1.693397	0.080833	1.309580	-0.144720	0.394299	-0.604696	-0.461965	-0.515227	-179.699951	-80.900964	74.501128
60796		7.116070	-0.443378	-1.591258	0.158282	1.260255	-0.167754	0.397240	-0.600718	-0.460435	-0.518978	179.743255	-81.620703	75.160229
60797		7.092588	-0.522299	-1.554282	0.218229	1.223037	-0.191580	0.400202	-0.596632	-0.459189	-0.522508	179.008549	-82.318344	76.032957
60798		7.215928	-0.518802	-1.234345	0.243703	1.169698	-0.213474	0.403041	-0.592569	-0.458162	-0.525841	178.038519	-82.982583	77.155804
60799		7.361146	-0.412329	-0.982352	0.199139	1.150717	-0.215768	0.405687	-0.588612	-0.457048	-0.529208	176.814071	-83.633681	78.507985
60800		7.451035	-0.277667	-0.992631	0.116227	1.139517	-0.200622	0.408087	-0.584871	-0.455678	-0.532680	175.340372	-84.274496	80.061087
60801		7.467342	-0.241980	-0.882295	0.050681	1.113523	-0.187426	0.410261	-0.581340	-0.454132	-0.536184	173.548523	-84.896912	81.894570
60802		7.561487	-0.223267	-0.683499	0.032865	1.072809	-0.183395	0.412286	-0.577951	-0.452597	-0.539583	171.322071	-85.489492	84.151980
60803		7.624322	-0.169009	-0.579553	0.030020	1.025117	-0.178817	0.414198	-0.574685	-0.451126	-0.542828	168.535686	-86.047434	86.967648
60804		7.661371	-0.083944	-0.522743	0.061553	0.987658	-0.171906	0.416122	-0.571463	-0.449785	-0.545863	165.027261	-86.572684	90.522755
60805		7.677169	-0.033068	-0.322817	0.116053	0.955563	-0.175974	0.418110	-0.568186	-0.448661	-0.548682	160.368515	-87.062728	95.259692
60806		7.687978	0.052871	-0.244506	0.134310	0.931741	-0.181696	0.420070	-0.564913	-0.447644	-0.551388	153.986346	-87.511205	101.730367
60807		7.689186	0.100930	-0.293681	0.109653	0.904010	-0.183680	0.421885	-0.561748	-0.446612	-0.554066	145.154118	-87.901801	110.636921
60808		7.614597	0.103952	-0.298715	0.067795	0.866186	-0.178323	0.423503	-0.558779	-0.445522	-0.556705	133.301832	-88.207937	122.539334
60809		7.542409	0.136171	-0.379272	0.037838	0.819737	-0.164446	0.424966	-0.556021	-0.444397	-0.559245	118.516020	-88.403959	137.357653
60810		7.472179	0.151387	-0.269696	0.021843	0.777222	-0.152155	0.426317	-0.553437	-0.443279	-0.561664	102.074357	-88.472422	153.822398
60811		7.454015	0.208858	-0.160333	0.023002	0.741181	-0.132058	0.427641	-0.550985	-0.442176	-0.563932	86.266471	-88.422699	169.653643
60812		7.512886	0.320805	0.074635	0.029558	0.721987	-0.118921	0.428972	-0.548597	-0.441093	-0.566093	72.686806	-88.275220	-176.739561
60813		7.561599	0.359714	0.302886	0.039141	0.701505	-0.114978	0.430290	-0.546245	-0.440063	-0.568165	62.018163	-88.055210	-166.038613
60814		7.586429	0.410753	0.408452	0.049196	0.690296	-0.113685	0.431609	-0.543902	-0.439078	-0.570171	53.880858	-87.786934	-157.863149
60815		7.537705	0.431622	0.361053	0.032462	0.663330	-0.107242	0.432837	-0.541677	-0.438079	-0.572123	47.792331	-87.496498	-151.746427
60816		7.538677	0.447069	0.311979	0.022487	0.619005	-0.095342	0.433969	-0.539624	-0.437112	-0.573942	43.266146	-87.207304	-147.197935
60817		7.663042	0.553889	0.492555	0.025365	0.558442	-0.074720	0.435033	-0.537776	-0.436224	-0.575545	39.850836	-86.937724	-143.759172
60818		7.889258	0.659583	0.553125	0.004105	0.510766	-0.043422	0.436023	-0.536178	-0.435292	-0.576991	37.026109	-86.691994	-140.923113
60819		8.141723	0.741930	0.538466	-0.032889	0.457441	-0.006700	0.436901	-0.534889	-0.434268	-0.578294	34.575058	-86.475962	-138.482129
60820		8.400094	0.849313	0.475467	-0.080782	0.400080	0.027924	0.437624	-0.533945	-0.433137	-0.579466	32.398687	-86.293005	-136.343180
60821		8.570805	0.918397	0.622822	-0.122442	0.346998	0.062779	0.438220	-0.533318	-0.431905	-0.580511	30.375679	-86.141201	-134.381609
60822		8.570450	0.955076	0.704941	-0.154424	0.307194	0.098382	0.438747	-0.532953	-0.430574	-0.581436	28.388373	-86.015236	-132.473686
60823		8.501905	1.130651	0.914347	-0.201146	0.274564	0.124558	0.439154	-0.532839	-0.429105	-0.582319	26.423651	-85.907959	-130.615154
60824		8.618538	1.187759	1.125812	-0.255008	0.248720	0.143049	0.439415	-0.532957	-0.427487	-0.583203	24.482036	-85.814563	-128.810340
60825		8.843905	1.311477	1.277268	-0.273230	0.227694	0.153734	0.439611	-0.533197	-0.425831	-0.584048	22.598952	-85.730007	-127.074637
60826		9.131867	1.371584	1.501421	-0.251027	0.204221	0.142764	0.439784	-0.533432	-0.424320	-0.584802	20.941601	-85.651961	-125.552245
60827		9.391957	1.366493	1.667747	-0.189180	0.199342	0.118839	0.440040	-0.533492	-0.423062	-0.585466	19.554437	-85.568522	-124.265253
60828		9.601328	1.282115	1.723848	-0.104528	0.205096	0.073391	0.440400	-0.533252	-0.422160	-0.586064	18.564991	-85.471548	-123.328315
60829		9.705702	1.118412	1.738899	-0.048853	0.212243	0.028486	0.440791	-0.532773	-0.421525	-0.586662	17.934140	-85.361497	-122.719061
60830		9.851588	0.947269	1.830463	-0.019926	0.212519	-0.005533	0.441160	-0.532157	-0.421063	-0.587275	17.571416	-85.244886	-122.362155
60831		9.878244	0.814705	1.915050	-0.011076	0.205966	-0.005484	0.441539	-0.531541	-0.420641	-0.587851	17.243823	-85.131741	-122.035311
60832		9.739648	0.703017	1.937492	-0.025616	0.210154	0.017086	0.441954	-0.530990	-0.420106	-0.588420	16.772210	-85.019653	-121.572314
60833		9.559505	0.599853	1.882931	-0.053569	0.207923	0.058642	0.442411	-0.530595	-0.419384	-0.588947	16.053157	-84.915354	-120.876827
60834		9.454799	0.530844	1.862419	-0.073066	0.194406	0.103041	0.442919	-0.530374	-0.418514	-0.589383	15.101970	-84.824039	-119.959627
60835		9.396685	0.450043	1.868167	-0.088550	0.171432	0.148654	0.443471	-0.530352	-0.417529	-0.589686	13.935245	-84.750948	-118.834540
60836		9.367872	0.432999	1.905499	-0.092974	0.145437	0.182354	0.444057	-0.530483	-0.416496	-0.589858	12.628982	-84.693976	-117.572042
60837		9.336969	0.433091	1.991850	-0.095867	0.131146	0.195278	0.444642	-0.530691	-0.415455	-0.589965	11.290292	-84.644511	-116.278240
60838		9.294379	0.446784	1.953796	-0.113871	0.116393	0.202855	0.445171	-0.530995	-0.414367	-0.590057	9.934348	-84.600518	-114.977772
60839		9.209007	0.557154	1.968892	-0.127244	0.097135	0.204273	0.445627	-0.531390	-0.413284	-0.590116	8.603648	-84.565528	-113.709872
60840		9.105346	0.697083	1.958978	-0.126448	0.083355	0.203593	0.446056	-0.531819	-0.412228	-0.590145	7.303104	-84.534554	-112.472296
60841		9.018946	0.762639	1.941965	-0.104010	0.071536	0.201012	0.446510	-0.532230	-0.411278	-0.590094	6.054859	-84.508541	-111.273725
60842		8.949396	0.775738	1.944547	-0.075404	0.059410	0.197190	0.447005	-0.532600	-0.410442	-0.589967	4.861909	-84.485594	-110.114784
60843		8.906910	0.789558	1.923667	-0.062379	0.040637	0.190693	0.447475	-0.532986	-0.409710	-0.589770	3.733731	-84.472060	-109.012791
60844		8.830005	0.754276	1.941691	-0.054881	0.028553	0.179685	0.447910	-0.533364	-0.409048	-0.589559	2.682531	-84.461678	-107.984453
60845		8.726645	0.742074	2.007215	-0.049494	0.013115	0.176046	0.448314	-0.533772	-0.408454	-0.589294	1.663918	-84.459662	-106.985088
60846		8.765302	0.688063	2.082583	-0.055706	0.006213	0.169225	0.448670	-0.534195	-0.407865	-0.589048	0.682494	-84.458258	-106.027428
60847		8.903596	0.688790	2.223469	-0.063435	0.002300	0.165559	0.448983	-0.534644	-0.407282	-0.588805	-0.280289	-84.459097	-105.092177
60848		9.025401	0.678246	2.262701	-0.080029	0.004996	0.163347	0.449253	-0.535111	-0.406638	-0.588620	-1.239859	-84.455104	-104.170628
60849		9.169693	0.746970	2.437205	-0.108527	0.014515	0.162451	0.449461	-0.535618	-0.405902	-0.588507	-2.206384	-84.445967	-103.257563
60850		9.219504	0.787100	2.525832	-0.135054	0.028690	0.158858	0.449619	-0.536128	-0.405054	-0.588507	-3.158770	-84.425303	-102.374851
60851		9.309630	0.881788	2.528210	-0.170338	0.049594	0.155216	0.449710	-0.536655	-0.404076	-0.588629	-4.095124	-84.393439	-101.527623
60852		9.374856	0.935819	2.476352	-0.232517	0.059874	0.154190	0.449654	-0.537282	-0.402879	-0.588921	-5.044891	-84.352098	-100.703813
60853		9.409127	1.047004	2.578019	-0.296645	0.069892	0.160724	0.449462	-0.538042	-0.401467	-0.589338	-6.050656	-84.305602	-99.859440
60854		9.373035	1.126224	2.596963	-0.352236	0.090350	0.163746	0.449172	-0.538863	-0.399820	-0.589929	-7.074140	-84.243241	-99.030381
60855		9.354864	1.174446	2.641771	-0.375179	0.106447	0.152878	0.448815	-0.539672	-0.398113	-0.590614	-8.019765	-84.173688	-98.291507
60856		9.431633	1.167016	2.643184	-0.404146	0.120265	0.136964	0.448362	-0.540461	-0.396314	-0.591446	-8.859964	-84.093701	-97.676414
60857		9.386855	1.136339	2.579766	-0.431308	0.135746	0.118206	0.447805	-0.541236	-0.394465	-0.592395	-9.584360	-84.008610	-97.192094
60858		9.338434	1.083227	2.514237	-0.472557	0.149065	0.101638	0.447115	-0.542017	-0.392488	-0.593514	-10.211239	-83.914028	-96.830873
60859		9.299089	1.082507	2.432896	-0.515932	0.154869	0.085971	0.446266	-0.542855	-0.390428	-0.594745	-10.764375	-83.820436	-96.567399
60860		9.296033	1.061920	2.453561	-0.562245	0.165330	0.073560	0.445275	-0.543724	-0.388217	-0.596139	-11.253541	-83.718844	-96.396368
60861		9.316908	1.057641	2.505766	-0.607538	0.172379	0.065570	0.444142	-0.544664	-0.385894	-0.597632	-11.714924	-83.617270	-96.277920
60862		9.412138	1.025021	2.514630	-0.634350	0.182536	0.060413	0.442942	-0.545605	-0.383457	-0.599231	-12.141595	-83.507098	-96.211225
60863		9.476131	0.908623	2.457048	-0.630880	0.188742	0.058212	0.441746	-0.546523	-0.381040	-0.600817	-12.545811	-83.397079	-96.163733
60864		9.432262	0.789685	2.233864	-0.584329	0.187949	0.047141	0.440643	-0.547301	-0.378768	-0.602354	-12.859668	-83.285267	-96.181937
60865		9.366576	0.568401	2.061784	-0.513433	0.182335	0.035531	0.439680	-0.547926	-0.376773	-0.603739	-13.085090	-83.181687	-96.246708
60866		9.376733	0.363877	1.898402	-0.459681	0.170570	0.020806	0.438800	-0.548423	-0.374981	-0.605042	-13.217530	-83.082893	-96.375733
60867		9.535035	0.279306	1.923285	-0.450252	0.148957	0.014796	0.437880	-0.548964	-0.373303	-0.606255	-13.345222	-83.000694	-96.502519
60868		9.798114	0.324165	1.860182	-0.452197	0.145972	0.016012	0.436954	-0.549504	-0.371596	-0.607481	-13.477784	-82.916243	-96.627261
60869		10.208541	0.332034	1.761452	-0.442529	0.151666	0.014171	0.436053	-0.550013	-0.369932	-0.608681	-13.595418	-82.832686	-96.759770
60870		11.131255	0.461458	1.710548	-0.448861	0.157558	0.022165	0.435174	-0.550515	-0.368189	-0.609913	-13.740650	-82.740954	-96.869747
60871		12.752232	0.556410	1.830170	-0.506594	0.119032	0.034684	0.434094	-0.551295	-0.366341	-0.611090	-14.018336	-82.672826	-96.877955
60872		13.674596	0.940635	2.187041	-0.571074	0.065544	0.062046	0.432824	-0.552409	-0.364310	-0.612197	-14.500616	-82.626734	-96.718697
60873		13.142958	0.925721	2.281141	-0.527641	0.130489	0.059670	0.431777	-0.553237	-0.362299	-0.613382	-14.876751	-82.548645	-96.639792
60874		12.695308	0.416071	1.982187	-0.422828	0.198207	0.018485	0.431019	-0.553537	-0.360551	-0.614672	-14.935236	-82.435290	-96.822200
60875		12.548338	-0.187136	1.732370	-0.303932	0.263819	-0.026465	0.430563	-0.553311	-0.359174	-0.616000	-14.678076	-82.295933	-97.252891
60876		12.327236	-0.720447	1.792496	-0.154304	0.323331	-0.051359	0.430555	-0.552518	-0.358174	-0.617299	-14.182146	-82.122933	-97.839545
60877		11.977557	-1.126586	1.636806	-0.034426	0.366809	-0.064413	0.430908	-0.551322	-0.357508	-0.618506	-13.553603	-81.930574	-98.489672
60878		11.523305	-1.340200	1.383662	0.045373	0.397507	-0.047528	0.431592	-0.549873	-0.356951	-0.619640	-12.943612	-81.714121	-99.076827
60879		10.923143	-1.423896	1.287777	0.105792	0.396315	-0.009340	0.432552	-0.548378	-0.356501	-0.620554	-12.477319	-81.496544	-99.482428
60880		10.161730	-1.417602	1.207181	0.215957	0.388300	0.016372	0.433882	-0.546698	-0.356315	-0.621214	-12.067350	-81.276093	-99.768952
60881		9.295608	-1.623303	0.904349	0.361460	0.377222	0.019922	0.435593	-0.544755	-0.356616	-0.621551	-11.615993	-81.064908	-100.011662
60882		8.413377	-1.917891	0.447289	0.481109	0.340014	0.012658	0.437544	-0.542634	-0.357364	-0.621606	-11.110574	-80.871389	-100.241249
60883		7.762360	-2.280234	0.239311	0.519869	0.277512	0.008855	0.439466	-0.540626	-0.358400	-0.621403	-10.628611	-80.716901	-100.423273
60884		7.436586	-2.559181	0.127555	0.478518	0.199819	0.028019	0.441200	-0.538967	-0.359401	-0.621038	-10.292279	-80.600344	-100.483167
60885		7.605916	-2.585819	0.150308	0.347598	0.093822	0.098673	0.442601	-0.538063	-0.360059	-0.620443	-10.340681	-80.539907	-100.227735
60886		8.283285	-2.357666	0.383767	0.149891	0.015931	0.199251	0.443646	-0.538006	-0.359982	-0.619791	-10.886314	-80.509005	-99.584615
60887		9.255793	-1.855176	0.616201	-0.039037	-0.051485	0.314007	0.444411	-0.538795	-0.359182	-0.619021	-11.969340	-80.504925	-98.504751
60888		10.209518	-1.341492	0.841833	-0.147041	-0.094342	0.404101	0.445091	-0.540104	-0.357877	-0.618147	-13.444791	-80.506078	-97.091245
60889		10.628362	-0.806883	1.022520	-0.130616	-0.110776	0.431596	0.445864	-0.541487	-0.356605	-0.617114	-15.018482	-80.509654	-95.567110
60890		10.342910	-0.469987	1.186803	0.009583	-0.103144	0.385268	0.446889	-0.542436	-0.355852	-0.615973	-16.349262	-80.506588	-94.209195
60891		10.027375	-0.295442	1.363191	0.185865	-0.092454	0.278814	0.448078	-0.542779	-0.355927	-0.614763	-17.221944	-80.514187	-93.211959
60892		9.796818	-0.292250	1.418954	0.329307	-0.072317	0.148997	0.449296	-0.542494	-0.356728	-0.613660	-17.564800	-80.528150	-92.669869
60893		9.467831	-0.279976	1.458076	0.455748	-0.057073	0.032723	0.450521	-0.541681	-0.358217	-0.612612	-17.442886	-80.556761	-92.524265
60894		9.045968	-0.384852	1.458389	0.535573	-0.045003	-0.045948	0.451744	-0.540494	-0.360114	-0.611646	-16.999668	-80.589180	-92.659297
60895		8.775025	-0.570009	1.522817	0.572460	-0.047124	-0.086249	0.452932	-0.539165	-0.362255	-0.610676	-16.404757	-80.632251	-92.925363
60896		8.505226	-0.772247	1.561169	0.549756	-0.046063	-0.092480	0.454042	-0.537858	-0.364318	-0.609777	-15.793623	-80.672229	-93.222274
60897		8.328543	-0.846577	1.639944	0.467507	-0.048823	-0.071511	0.454982	-0.536791	-0.366097	-0.608950	-15.302487	-80.713089	-93.444056
60898		8.093157	-0.900271	1.636439	0.335231	-0.060094	-0.030703	0.455673	-0.536120	-0.367368	-0.608258	-15.029945	-80.750739	-93.522396
60899		7.839149	-0.781272	1.632124	0.190724	-0.070426	0.010741	0.456078	-0.535897	-0.368132	-0.607690	-14.993028	-80.791007	-93.444619
60900		7.643912	-0.624034	1.618232	0.078997	-0.075637	0.033702	0.456248	-0.535974	-0.368485	-0.607279	-15.100735	-80.827590	-93.286524
60901		7.603413	-0.463186	1.581044	0.029884	-0.086012	0.039676	0.456281	-0.536217	-0.368717	-0.606899	-15.271263	-80.872094	-93.091988
60902		7.757613	-0.331982	1.546949	0.052840	-0.093442	0.014664	0.456291	-0.536373	-0.369082	-0.606532	-15.347701	-80.921221	-92.980807
60903		8.022805	-0.226579	1.576485	0.114767	-0.106189	-0.021597	0.456328	-0.536370	-0.369782	-0.606080	-15.278961	-80.986075	-92.979364
60904		8.293218	-0.199634	1.642056	0.184706	-0.123454	-0.066869	0.456388	-0.536164	-0.370833	-0.605574	-15.023463	-81.064029	-93.127782
60905		8.588867	-0.258898	1.770876	0.215153	-0.138689	-0.098109	0.456401	-0.535888	-0.372115	-0.605022	-14.653334	-81.158107	-93.373177
60906		8.791997	-0.424668	1.890777	0.193513	-0.142658	-0.121651	0.456282	-0.535616	-0.373382	-0.604572	-14.204509	-81.254203	-93.712067
60907		8.959673	-0.601440	2.253355	0.118339	-0.128147	-0.130820	0.455955	-0.535466	-0.374434	-0.604302	-13.746871	-81.346363	-94.101982
60908		8.965878	-0.735309	2.221407	0.038942	-0.108843	-0.119866	0.455489	-0.535446	-0.375150	-0.604226	-13.346449	-81.422463	-94.481394
60909		8.924137	-0.863694	2.184256	-0.017527	-0.088596	-0.105531	0.454948	-0.535533	-0.375633	-0.604257	-13.010566	-81.488423	-94.826747
60910		8.829197	-0.923949	2.075119	-0.065522	-0.078274	-0.091341	0.454346	-0.535711	-0.375886	-0.604395	-12.738926	-81.542984	-95.136428
60911		8.785839	-0.996305	2.123002	-0.121159	-0.077295	-0.087696	0.453602	-0.536032	-0.375981	-0.604610	-12.511111	-81.599891	-95.432455
60912		8.751647	-0.938674	2.267336	-0.209594	-0.070041	-0.092086	0.452627	-0.536510	-0.375780	-0.605042	-12.305506	-81.649415	-95.758829
60913		8.726215	-0.935088	2.280572	-0.286284	-0.045430	-0.112582	0.451423	-0.537060	-0.375370	-0.605707	-12.044239	-81.691136	-96.184210
60914		8.798583	-0.882932	2.368564	-0.334831	-0.027958	-0.146945	0.450023	-0.537588	-0.374838	-0.606609	-11.659172	-81.722872	-96.764499
60915		9.001047	-0.816709	2.431117	-0.339532	-0.004216	-0.185220	0.448531	-0.537994	-0.374367	-0.607645	-11.108107	-81.748800	-97.513478
60916		9.329549	-0.738518	2.492779	-0.324475	0.019375	-0.220491	0.447021	-0.538213	-0.373954	-0.608817	-10.389451	-81.759940	-98.424898
60917		9.644407	-0.750348	2.539165	-0.290609	0.046385	-0.257136	0.445533	-0.538217	-0.373708	-0.610053	-9.488938	-81.761698	-99.498599
60918		9.942580	-0.744568	2.537885	-0.228643	0.070278	-0.281211	0.444188	-0.537949	-0.373633	-0.611315	-8.445420	-81.745193	-100.682924
60919		10.144420	-0.819748	2.408795	-0.156992	0.097001	-0.308908	0.442993	-0.537401	-0.373819	-0.612549	-7.243074	-81.716640	-101.984351
60920		10.252945	-0.922950	2.386601	-0.094291	0.107457	-0.335658	0.441910	-0.536616	-0.374215	-0.613777	-5.907855	-81.675309	-103.385972
60921		10.434109	-1.032670	2.375384	-0.060175	0.114593	-0.354002	0.440866	-0.535711	-0.374778	-0.614973	-4.490981	-81.630447	-104.848417
60922		10.638947	-1.040906	2.487340	-0.061814	0.120789	-0.368888	0.439790	-0.534747	-0.375328	-0.616246	-3.036686	-81.572727	-106.352064
60923		10.819290	-0.951878	2.513580	-0.078506	0.130757	-0.364503	0.438692	-0.533810	-0.375824	-0.617538	-1.623754	-81.508280	-107.821568
60924		10.922964	-0.856892	2.555377	-0.069392	0.143030	-0.353358	0.437681	-0.532818	-0.376257	-0.618846	-0.276562	-81.426821	-109.221969
60925		10.877200	-0.819681	2.715336	-0.030698	0.162599	-0.340823	0.436840	-0.531718	-0.376765	-0.620076	1.024425	-81.334087	-110.551162
60926		10.858181	-0.844361	2.796618	-0.001049	0.206307	-0.332768	0.436192	-0.530416	-0.377211	-0.621375	2.269556	-81.207248	-111.809564
60927		11.288690	-1.083890	2.491392	0.068301	0.270976	-0.325764	0.435861	-0.528787	-0.377747	-0.622669	3.486626	-81.044310	-112.997326
60928		12.807560	-1.307992	1.747173	0.254502	0.220225	-0.322307	0.435943	-0.526900	-0.378925	-0.623495	4.759195	-80.901677	-114.136427
60929		12.994804	-1.242294	2.211300	0.326539	0.127019	-0.305477	0.436080	-0.525190	-0.380522	-0.623870	6.020029	-80.814076	-115.219536
60930		11.557067	-0.796382	2.362489	0.262978	0.162896	-0.257825	0.436273	-0.523580	-0.381677	-0.624382	7.030267	-80.700932	-116.088700
60931		10.471150	-0.363612	1.968263	0.240318	0.203594	-0.218870	0.436596	-0.521979	-0.382607	-0.624927	7.863264	-80.570135	-116.788949
60932		10.236670	0.103389	1.878737	0.204082	0.233863	-0.209752	0.436917	-0.520364	-0.383295	-0.625628	8.597359	-80.416550	-117.413079
60933		10.377114	0.380861	1.949493	0.127290	0.269821	-0.191206	0.437156	-0.518852	-0.383651	-0.626497	9.197483	-80.247870	-117.943417
60934		11.098383	0.648369	1.951762	0.038616	0.312603	-0.174691	0.437305	-0.517416	-0.383555	-0.627639	9.639930	-80.050978	-118.368409
60935		12.006468	0.849923	1.833808	-0.016467	0.330057	-0.151593	0.437408	-0.516102	-0.383225	-0.628850	9.963003	-79.850766	-118.701646
60936		12.296948	1.026516	1.831681	-0.028997	0.339245	-0.127182	0.437579	-0.514818	-0.382734	-0.630081	10.175003	-79.642871	-118.932306
60937		11.706596	1.158926	1.862137	-0.080090	0.361823	-0.095729	0.437752	-0.513646	-0.381986	-0.631369	10.252490	-79.430006	-119.053311
60938		10.637430	1.314846	1.653561	-0.170824	0.380596	-0.054397	0.437863	-0.512677	-0.380769	-0.632813	10.132207	-79.206202	-119.028755
60939		9.615898	1.530988	1.081800	-0.282619	0.380147	-0.012288	0.437812	-0.512046	-0.379123	-0.634346	9.839228	-78.991373	-118.890836
60940		8.752218	1.831026	0.397928	-0.354274	0.345695	0.011706	0.437591	-0.511710	-0.377229	-0.635897	9.453104	-78.793762	-118.702307
60941		8.218278	2.023405	-0.222135	-0.391542	0.291107	0.004508	0.437140	-0.511626	-0.375386	-0.637364	9.109348	-78.630526	-118.576067
60942		7.944057	2.005293	-0.610789	-0.350903	0.185299	-0.034266	0.436475	-0.511702	-0.373970	-0.638590	8.942084	-78.519519	-118.608368
60943		8.080880	1.859502	-0.749566	-0.235744	0.039835	-0.079167	0.435682	-0.511919	-0.373384	-0.639300	9.037440	-78.490865	-118.839045
60944		8.385627	1.695261	-0.617701	-0.086824	-0.091024	-0.114851	0.434917	-0.512150	-0.373624	-0.639496	9.369639	-78.529208	-119.226288
60945		8.813834	1.432406	-0.417302	0.043068	-0.199436	-0.134821	0.434212	-0.512420	-0.374591	-0.639193	9.893822	-78.629863	-119.731420
60946		9.254353	1.085758	-0.065174	0.115869	-0.281928	-0.126916	0.433568	-0.512798	-0.375927	-0.638542	10.484123	-78.773749	-120.262866
60947		9.562640	0.714545	0.322826	0.120429	-0.330956	-0.115981	0.432872	-0.513353	-0.377377	-0.637713	11.093480	-78.948406	-120.809138
60948		9.761133	0.450755	0.704836	0.057101	-0.361141	-0.095575	0.432024	-0.514168	-0.378617	-0.636895	11.638053	-79.138482	-121.327467
60949		9.882227	0.182971	1.119957	-0.067628	-0.348782	-0.074852	0.430940	-0.515260	-0.379398	-0.636282	12.065296	-79.325985	-121.797357
60950		9.808908	0.084089	1.482807	-0.234464	-0.316243	-0.038695	0.429605	-0.516665	-0.379465	-0.636005	12.276069	-79.496559	-122.145320
60951		9.613171	0.166496	1.814411	-0.410790	-0.266228	0.026456	0.428111	-0.518421	-0.378712	-0.636033	12.166000	-79.649548	-122.268275
60952		9.338867	0.256677	1.737527	-0.545422	-0.210756	0.111547	0.426644	-0.520437	-0.377171	-0.636288	11.671742	-79.779083	-122.080413
60953		9.081510	0.424997	1.613175	-0.610452	-0.165229	0.189517	0.425333	-0.522597	-0.375138	-0.636597	10.862069	-79.893921	-121.608730
60954		8.892809	0.524542	1.646255	-0.601499	-0.129857	0.245093	0.424289	-0.524716	-0.372890	-0.636871	9.840006	-79.990662	-120.917569
60955		8.756528	0.503471	1.743781	-0.530347	-0.085642	0.263788	0.423566	-0.526582	-0.370741	-0.637067	8.764269	-80.064456	-120.129420
60956		8.642108	0.425569	1.657803	-0.417199	-0.045562	0.259353	0.423201	-0.528059	-0.368858	-0.637180	7.731810	-80.110080	-119.320785
60957		8.416702	0.281660	1.588551	-0.281418	-0.018552	0.236794	0.423167	-0.529128	-0.367426	-0.637142	6.836610	-80.138930	-118.571351
60958		8.239338	0.072087	1.792461	-0.180981	-0.002992	0.206871	0.423335	-0.529870	-0.366343	-0.637039	6.083058	-80.152569	-117.908548
60959		8.101961	-0.114567	1.906549	-0.098083	0.003837	0.179088	0.423642	-0.530372	-0.365599	-0.636844	5.468434	-80.161932	-117.337345
60960		8.043395	-0.200128	1.905489	-0.058925	0.011981	0.158626	0.424007	-0.530718	-0.364999	-0.636658	4.936234	-80.161969	-116.828277
60961		7.980086	-0.248047	1.963098	-0.062193	0.007626	0.157842	0.424348	-0.531092	-0.364417	-0.636452	4.409791	-80.166294	-116.325714
60962		8.016605	-0.219791	2.081736	-0.091484	-0.004350	0.167870	0.424625	-0.531575	-0.363722	-0.636261	3.831728	-80.174319	-115.789090
60963		8.129268	-0.142928	2.072398	-0.122391	-0.014858	0.179480	0.424834	-0.532187	-0.362938	-0.636058	3.202507	-80.190528	-115.217253
60964		8.261918	0.061051	2.045357	-0.130376	-0.026815	0.192832	0.425046	-0.532867	-0.362099	-0.635824	2.520367	-80.210005	-114.597724
60965		8.387068	0.294044	2.100202	-0.116346	-0.032228	0.205723	0.425321	-0.533568	-0.361301	-0.635507	1.805188	-80.234415	-113.935217
60966		8.559198	0.537624	2.191623	-0.087807	-0.039040	0.210387	0.425679	-0.534227	-0.360575	-0.635125	1.084298	-80.258454	-113.251726
60967		8.625740	0.759368	2.309733	-0.061959	-0.024616	0.206591	0.426115	-0.534788	-0.359930	-0.634726	0.390648	-80.275701	-112.579535
60968		8.675487	0.959562	2.523060	-0.057849	-0.002861	0.191059	0.426557	-0.535232	-0.359273	-0.634428	-0.253799	-80.276127	-111.956244
60969		8.778834	1.100299	2.657700	-0.072833	0.022674	0.166669	0.426921	-0.535594	-0.358599	-0.634259	-0.821089	-80.263960	-111.418586
60970		8.949858	1.322256	2.750714	-0.097421	0.052544	0.149734	0.427225	-0.535871	-0.357808	-0.634267	-1.344941	-80.230862	-110.940607
60971		9.043475	1.465839	2.788085	-0.131223	0.069610	0.141274	0.427436	-0.536162	-0.356916	-0.634382	-1.852369	-80.190535	-110.497550
60972		9.079719	1.577233	2.681873	-0.163350	0.086778	0.131420	0.427565	-0.536436	-0.355891	-0.634638	-2.341594	-80.136674	-110.092912
60973		9.023074	1.570677	2.581656	-0.175935	0.081626	0.129727	0.427640	-0.536763	-0.354861	-0.634888	-2.826482	-80.088476	-109.698609
60974		9.045321	1.469487	2.524067	-0.169107	0.087049	0.107809	0.427678	-0.537005	-0.353880	-0.635205	-3.232288	-80.033979	-109.381837
60975		9.141985	1.309818	2.568195	-0.156225	0.090510	0.086166	0.427683	-0.537183	-0.353010	-0.635536	-3.554702	-79.981224	-109.140919
60976		9.309450	1.141112	2.623599	-0.150869	0.098919	0.066051	0.427658	-0.537273	-0.352173	-0.635941	-3.805551	-79.920794	-108.970753
60977		9.521216	0.942852	2.681010	-0.177825	0.110913	0.046689	0.427514	-0.537362	-0.351297	-0.636447	-4.003843	-79.857542	-108.868398
60978		9.820614	0.815618	2.723783	-0.236092	0.124335	0.032509	0.427197	-0.537492	-0.350223	-0.637141	-4.186153	-79.783664	-108.817388
60979		10.165501	0.812395	2.757751	-0.312653	0.127354	0.024646	0.426648	-0.537776	-0.348940	-0.637973	-4.384432	-79.711842	-108.793506
60980		10.509069	0.905896	2.896622	-0.378604	0.143630	0.028733	0.425968	-0.538139	-0.347379	-0.638973	-4.628060	-79.626966	-108.763133
60981		10.818167	1.022119	2.962464	-0.414760	0.164339	0.031430	0.425227	-0.538530	-0.345670	-0.640062	-4.892717	-79.533669	-108.731233
60982		11.023635	1.122416	3.035104	-0.431847	0.207855	0.028121	0.424509	-0.538794	-0.343801	-0.641323	-5.142908	-79.412041	-108.725172
60983		11.095845	1.165106	3.098124	-0.452095	0.260724	0.015057	0.423776	-0.538921	-0.341808	-0.642764	-5.347597	-79.264560	-108.776036
60984		11.104174	1.232579	3.110550	-0.465383	0.321351	-0.000820	0.423064	-0.538834	-0.339663	-0.644441	-5.493792	-79.079685	-108.895379
60985		11.100530	1.369059	3.251931	-0.459732	0.399018	-0.024763	0.422411	-0.538456	-0.337455	-0.646342	-5.545389	-78.855573	-109.106741
60986		10.918716	1.346744	3.242244	-0.391542	0.513148	-0.060514	0.422022	-0.537483	-0.335298	-0.648525	-5.429736	-78.564541	-109.450100
60987		11.214896	1.273501	3.021366	-0.302332	0.630141	-0.102690	0.421920	-0.535882	-0.333314	-0.650934	-5.130642	-78.212504	-109.927840
60988		13.029584	1.067580	2.361481	-0.388080	0.602326	-0.137085	0.421432	-0.534471	-0.331177	-0.653496	-4.817066	-77.873744	-110.472251
60989		14.087305	1.113544	2.385073	-0.445994	0.437352	-0.119779	0.420560	-0.533761	-0.329169	-0.655649	-4.637928	-77.631686	-110.912594
60990		12.816454	0.494193	2.457816	-0.245693	0.513673	-0.131807	0.420312	-0.532338	-0.327667	-0.657714	-4.311522	-77.342548	-111.387575
60991		11.620722	-0.406485	2.422267	-0.114924	0.500782	-0.170914	0.420253	-0.530631	-0.326742	-0.659589	-3.833910	-77.065264	-111.940412
60992		10.865188	-1.170588	2.313498	-0.072249	0.505364	-0.176282	0.420299	-0.528790	-0.325943	-0.661431	-3.339793	-76.781005	-112.486556
60993		10.526970	-1.643423	2.368409	-0.030448	0.507203	-0.133816	0.420591	-0.526937	-0.325181	-0.663097	-2.944902	-76.496930	-112.905892
60994		10.511434	-1.981643	2.311267	-0.010859	0.519059	-0.096896	0.421079	-0.525043	-0.324342	-0.664699	-2.640807	-76.200931	-113.221668
60995		10.720459	-2.091477	2.202828	0.063686	0.513160	-0.046890	0.421910	-0.523107	-0.323647	-0.666036	-2.421709	-75.910227	-113.405342
60996		10.662720	-1.945329	2.000799	0.246439	0.492417	0.028047	0.423438	-0.520954	-0.323387	-0.666879	-2.277068	-75.625970	-113.405426
60997		10.054666	-1.858825	1.627893	0.452534	0.447992	0.077728	0.425587	-0.518606	-0.323795	-0.667143	-2.130138	-75.369582	-113.284885
60998		9.220673	-2.051982	0.965448	0.636870	0.362289	0.081524	0.428088	-0.516136	-0.324968	-0.666889	-1.894652	-75.158839	-113.147646
60999		8.354491	-2.360970	0.486736	0.755081	0.225378	0.079150	0.430652	-0.513873	-0.326848	-0.666066	-1.596431	-75.030163	-113.004059
61000		7.595804	-2.620127	0.122574	0.766799	0.058135	0.091961	0.433014	-0.512140	-0.329071	-0.664774	-1.330682	-74.994002	-112.820936
61001		7.041941	-2.686403	-0.033532	0.689474	-0.119766	0.139044	0.435030	-0.511251	-0.331315	-0.663024	-1.218102	-75.062572	-112.524053
61002		6.908894	-2.445403	-0.076762	0.594050	-0.287383	0.210740	0.436762	-0.511224	-0.333402	-0.660857	-1.326599	-75.223188	-112.056270
61003		7.453892	-2.052627	0.095669	0.501454	-0.424305	0.298489	0.438309	-0.512005	-0.335272	-0.658277	-1.696061	-75.463460	-111.372917
61004		8.468037	-1.691731	0.188014	0.422934	-0.524714	0.377885	0.439745	-0.513403	-0.336878	-0.655405	-2.317620	-75.755301	-110.477647
61005		9.503896	-1.291419	0.433263	0.384868	-0.581388	0.428060	0.441142	-0.515158	-0.338367	-0.652314	-3.114581	-76.078274	-109.424171
61006		10.074890	-0.813054	0.790786	0.419315	-0.599944	0.437828	0.442624	-0.516894	-0.339962	-0.649099	-3.962168	-76.405244	-108.300714
61007		10.225632	-0.337213	1.130269	0.559292	-0.575086	0.392632	0.444351	-0.518164	-0.342083	-0.645784	-4.661617	-76.718876	-107.247646
61008		10.125456	-0.047063	1.458843	0.737733	-0.526685	0.295498	0.446304	-0.518695	-0.344903	-0.642503	-5.048607	-77.004931	-106.412603
61009		9.817319	0.081727	1.697033	0.877829	-0.463990	0.173519	0.448321	-0.518498	-0.348355	-0.639388	-5.058364	-77.263011	-105.882230
61010		9.411879	0.028114	1.772416	0.929675	-0.406025	0.073217	0.450246	-0.517802	-0.352081	-0.636552	-4.777776	-77.491037	-105.620222
61011		9.093761	-0.097974	1.733119	0.905892	-0.362070	0.016934	0.451992	-0.516917	-0.355782	-0.633971	-4.353587	-77.699039	-105.518662
61012		8.820227	-0.207551	1.613571	0.838668	-0.322836	0.001675	0.453579	-0.516012	-0.359201	-0.631643	-3.914585	-77.883317	-105.472454
61013		8.640439	-0.248844	1.586584	0.743335	-0.292277	0.013329	0.455000	-0.515246	-0.362225	-0.629516	-3.550622	-78.051844	-105.404689
61014		8.536696	-0.256945	1.587297	0.645258	-0.268579	0.033237	0.456270	-0.514649	-0.364818	-0.627584	-3.289733	-78.204181	-105.289745
61015		8.419816	-0.212218	1.572059	0.552056	-0.238021	0.041911	0.457376	-0.514188	-0.367034	-0.625863	-3.099938	-78.340881	-105.156106
61016		8.360835	-0.125216	1.553708	0.459063	-0.219082	0.041804	0.458276	-0.513868	-0.368902	-0.624367	-2.959902	-78.464842	-105.026792
61017		8.376015	0.059848	1.492467	0.404284	-0.205940	0.042040	0.459055	-0.513637	-0.370577	-0.622991	-2.850091	-78.583316	-104.898053
61018		8.476195	0.265822	1.528196	0.378867	-0.200558	0.036895	0.459763	-0.513428	-0.372162	-0.621696	-2.739514	-78.696970	-104.785636
61019		8.449065	0.333661	1.589591	0.358271	-0.194163	0.015358	0.460357	-0.513213	-0.373732	-0.620491	-2.577774	-78.809519	-104.736826
61020		8.504596	0.316353	1.807074	0.322926	-0.189253	-0.013941	0.460781	-0.512998	-0.375244	-0.619440	-2.348749	-78.918132	-104.777839
61021		8.620151	0.281478	1.959469	0.274788	-0.171059	-0.044973	0.461015	-0.512786	-0.376654	-0.618585	-2.051391	-79.018853	-104.915970
61022		8.751706	0.218048	2.137536	0.229079	-0.150663	-0.067878	0.461101	-0.512564	-0.377924	-0.617930	-1.705944	-79.106289	-105.130280
61023		8.943805	0.094349	2.346849	0.184992	-0.118668	-0.083560	0.461082	-0.512322	-0.379033	-0.617465	-1.332219	-79.177266	-105.398478
61024		9.024026	-0.027661	2.485776	0.118910	-0.087079	-0.095256	0.460920	-0.512104	-0.379884	-0.617244	-0.955160	-79.227996	-105.709151
61025		8.945694	-0.207806	2.486542	0.042778	-0.055494	-0.098674	0.460609	-0.511965	-0.380447	-0.617244	-0.607353	-79.262240	-106.033815
61026		8.821844	-0.249353	2.576363	-0.048754	-0.018571	-0.098536	0.460138	-0.511915	-0.380630	-0.617525	-0.309835	-79.272922	-106.361300
61027		8.668498	-0.293956	2.688678	-0.159135	0.022173	-0.092191	0.459478	-0.512013	-0.380373	-0.618093	-0.093994	-79.262038	-106.669372
61028		8.686358	-0.322614	2.565168	-0.260306	0.059384	-0.088270	0.458645	-0.512226	-0.379696	-0.618951	0.050918	-79.227437	-106.965011
61029		8.716150	-0.345245	2.245747	-0.296432	0.074063	-0.087496	0.457744	-0.512487	-0.378882	-0.619900	0.171622	-79.186512	-107.256378
61030		8.748431	-0.340436	2.207827	-0.343078	0.066223	-0.104918	0.456658	-0.512834	-0.377972	-0.620968	0.315636	-79.147583	-107.599540
61031		8.887898	-0.338818	2.266073	-0.374082	0.054716	-0.127304	0.455396	-0.513253	-0.377061	-0.622101	0.507934	-79.117292	-108.009184
61032		9.027669	-0.357328	2.169623	-0.358996	0.064927	-0.149603	0.454125	-0.513553	-0.376216	-0.623294	0.771934	-79.078297	-108.483964
61033		9.383418	-0.401587	2.239918	-0.310800	0.060829	-0.172976	0.452891	-0.513719	-0.375603	-0.624423	1.131365	-79.043341	-109.027005
61034		9.790261	-0.490517	2.540125	-0.249111	0.057098	-0.191933	0.451752	-0.513711	-0.375224	-0.625482	1.577956	-79.007084	-109.623817
61035		10.215447	-0.670748	2.804431	-0.170641	0.081323	-0.206795	0.450809	-0.513431	-0.375087	-0.626474	2.108488	-78.958167	-110.259503
61036		10.653527	-0.791386	2.907417	-0.094902	0.114862	-0.219512	0.450086	-0.512840	-0.375129	-0.627452	2.707536	-78.885984	-110.921942
61037		10.962369	-0.985470	2.975219	-0.015137	0.156412	-0.237229	0.449586	-0.511915	-0.375387	-0.628411	3.390193	-78.790630	-111.622185
61038		11.114689	-1.209495	3.187262	0.086121	0.198291	-0.254266	0.449373	-0.510588	-0.375895	-0.629339	4.156189	-78.666295	-112.349671
61039		11.043677	-1.340431	3.450185	0.162357	0.254635	-0.260069	0.449436	-0.508909	-0.376547	-0.630263	4.954926	-78.510267	-113.065199
61040		10.847002	-1.391914	3.631170	0.170531	0.320685	-0.244048	0.449697	-0.507021	-0.377015	-0.631318	5.672044	-78.312685	-113.694423
61041		10.549678	-1.350400	3.610864	0.104001	0.396295	-0.202471	0.450056	-0.505130	-0.377015	-0.632576	6.197930	-78.075976	-114.166373
61042		10.516700	-1.238543	3.314669	0.018483	0.493262	-0.147247	0.450559	-0.503216	-0.376362	-0.634131	6.476560	-77.783781	-114.437617
61043		12.095622	-1.198224	2.242830	0.065960	0.551980	-0.087546	0.451474	-0.501127	-0.375596	-0.635587	6.602881	-77.464945	-114.523820
61044		13.660800	-1.394385	1.517870	0.308660	0.385826	-0.058591	0.452777	-0.499060	-0.375879	-0.636119	6.833569	-77.239393	-114.576263
61045		12.017923	-0.900598	2.661408	0.299425	0.378255	-0.035530	0.454110	-0.497088	-0.376112	-0.636575	7.004066	-77.022842	-114.570736
61046		10.555527	-0.225504	2.696031	0.165994	0.404833	0.022639	0.455347	-0.495431	-0.375691	-0.637231	6.942532	-76.792197	-114.407202
61047		10.358507	0.214149	2.460263	0.175601	0.442397	0.048597	0.456755	-0.493688	-0.375172	-0.637881	6.822328	-76.544933	-114.175826
61048		10.923168	0.593267	2.072817	0.195869	0.429822	0.040724	0.458166	-0.491913	-0.374740	-0.638494	6.737464	-76.301163	-113.970370
61049		11.425783	0.828025	2.106401	0.179104	0.408585	0.029277	0.459453	-0.490228	-0.374353	-0.639092	6.684349	-76.071685	-113.805543
61050		11.171472	1.085219	2.357290	0.078802	0.404209	0.013612	0.460438	-0.488748	-0.373670	-0.639917	6.610377	-75.840711	-113.679948
61051		10.595610	1.369798	2.169090	-0.049844	0.403304	-0.008593	0.461029	-0.487532	-0.372652	-0.641011	6.519833	-75.611657	-113.611527
61052		10.128428	1.573896	1.814562	-0.211433	0.376271	-0.012656	0.461165	-0.486756	-0.371166	-0.642363	6.351975	-75.394912	-113.560347
61053		9.807741	1.769489	1.289815	-0.418043	0.328957	0.012590	0.460785	-0.486662	-0.369083	-0.643906	6.029679	-75.209408	-113.470302
61054		9.550474	1.935202	0.619326	-0.586484	0.248743	0.075145	0.460048	-0.487317	-0.366469	-0.645429	5.497270	-75.070498	-113.263992
61055		9.389849	2.072685	0.065037	-0.609559	0.135564	0.111668	0.459157	-0.488461	-0.363966	-0.646614	4.904937	-75.000122	-113.007904
61056		9.169016	2.072579	-0.130887	-0.485758	0.025016	0.102416	0.458337	-0.489650	-0.362122	-0.647331	4.423701	-74.989663	-112.794356
61057		8.989393	1.909334	0.104912	-0.291072	-0.069287	0.043368	0.457627	-0.490596	-0.361282	-0.647586	4.197075	-75.032363	-112.727920
61058		8.997143	1.496939	0.153182	-0.087957	-0.175943	-0.037671	0.456962	-0.491269	-0.361532	-0.647406	4.275938	-75.130836	-112.857876
61059		9.438507	0.954556	0.206980	0.093884	-0.253602	-0.134401	0.456287	-0.491610	-0.362795	-0.646918	4.685068	-75.270912	-113.220936
61060		10.074174	0.315158	0.335918	0.223950	-0.316998	-0.221132	0.455536	-0.491693	-0.364828	-0.646239	5.378806	-75.440594	-113.801273
61061		10.466118	-0.212540	0.795063	0.232819	-0.348477	-0.267782	0.454594	-0.491776	-0.367081	-0.645563	6.204237	-75.624884	-114.511507
61062		10.589208	-0.673315	1.165887	0.136476	-0.331302	-0.233374	0.453557	-0.492078	-0.368893	-0.645030	6.911400	-75.798270	-115.156335
61063		10.369696	-0.931059	1.614175	-0.013793	-0.294895	-0.129529	0.452549	-0.492799	-0.369885	-0.644619	7.302168	-75.957772	-115.562974
61064		10.085256	-1.109566	1.861645	-0.184942	-0.248692	0.011513	0.451659	-0.494013	-0.369869	-0.644323	7.265188	-76.100139	-115.629834
61065		9.702164	-1.058002	1.902560	-0.333515	-0.205336	0.170731	0.450993	-0.495719	-0.368885	-0.644043	6.761449	-76.229877	-115.303394
61066		9.338270	-0.874471	1.827216	-0.438040	-0.165397	0.310434	0.450589	-0.497785	-0.367122	-0.643740	5.851398	-76.343936	-114.620817
61067		8.967617	-0.683730	1.683099	-0.452162	-0.115697	0.397144	0.450516	-0.499880	-0.364988	-0.643381	4.705228	-76.432044	-113.703637
61068		8.655869	-0.579174	1.570064	-0.363146	-0.077319	0.431706	0.450844	-0.501708	-0.362959	-0.642876	3.508355	-76.494500	-112.682447
61069		8.397461	-0.493407	1.548180	-0.207528	-0.040784	0.413676	0.451567	-0.503034	-0.361395	-0.642214	2.430989	-76.531467	-111.692363
61070		8.154803	-0.608468	1.442524	-0.029473	-0.021761	0.368671	0.452626	-0.503811	-0.360467	-0.641379	1.556461	-76.552055	-110.806382
61071		7.901802	-0.590997	1.462751	0.103192	-0.017159	0.321459	0.453874	-0.504189	-0.360077	-0.640419	0.869217	-76.567273	-110.034555
61072		7.650361	-0.521791	1.620651	0.143979	-0.019437	0.288968	0.455117	-0.504419	-0.359899	-0.639455	0.281205	-76.581017	-109.341095
61073		7.392865	-0.388501	1.736811	0.140483	-0.016980	0.267170	0.456283	-0.504612	-0.359763	-0.638548	-0.256979	-76.592362	-108.700630
61074		7.228055	-0.269991	1.770744	0.117226	-0.011353	0.257257	0.457369	-0.504819	-0.359559	-0.637721	-0.786080	-76.598563	-108.083569
61075		7.263678	-0.107386	1.735183	0.094124	-0.021498	0.250445	0.458355	-0.505099	-0.359326	-0.636922	-1.312418	-76.609917	-107.482633
61076		7.435217	0.092240	1.688492	0.090302	-0.034954	0.248700	0.459302	-0.505426	-0.359111	-0.636102	-1.839387	-76.627131	-106.883689
61077		7.813268	0.296131	1.744332	0.118416	-0.059677	0.245026	0.460262	-0.505760	-0.359055	-0.635173	-2.344616	-76.657924	-106.290240
61078		8.251395	0.479673	1.860037	0.161918	-0.076966	0.233083	0.461263	-0.506026	-0.359203	-0.634151	-2.801140	-76.697198	-105.721635
61079		8.543671	0.555535	2.096074	0.196870	-0.075876	0.212606	0.462288	-0.506171	-0.359514	-0.633112	-3.190222	-76.736064	-105.201521
61080		8.686543	0.629313	2.318484	0.212809	-0.063942	0.189347	0.463300	-0.506197	-0.359902	-0.632130	-3.514752	-76.767593	-104.738683
61081		8.759219	0.737565	2.427075	0.203323	-0.046747	0.162007	0.464232	-0.506142	-0.360293	-0.631267	-3.776787	-76.790287	-104.345411
61082		8.828712	0.867550	2.565260	0.169193	-0.021965	0.138620	0.465048	-0.506043	-0.360573	-0.630586	-3.998346	-76.798777	-104.014048
61083		8.927308	1.042267	2.720209	0.128457	0.002939	0.119074	0.465743	-0.505926	-0.360720	-0.630082	-4.191302	-76.794126	-103.735818
61084		8.972233	1.135087	2.824675	0.099499	0.030615	0.093409	0.466334	-0.505741	-0.360772	-0.629763	-4.332996	-76.773954	-103.527447
61085		8.998907	1.213351	2.771355	0.104041	0.056995	0.071570	0.466915	-0.505424	-0.360836	-0.629551	-4.413654	-76.740188	-103.378909
61086		9.064929	1.131420	2.755008	0.106126	0.081049	0.043032	0.467455	-0.504973	-0.360919	-0.629465	-4.418660	-76.693239	-103.306967
61087		9.188514	0.988392	2.770431	0.124515	0.087681	0.022617	0.467988	-0.504423	-0.361099	-0.629406	-4.362856	-76.644079	-103.286561
61088		9.349499	0.812263	2.816328	0.153718	0.093523	0.001888	0.468541	-0.503745	-0.361406	-0.629361	-4.239140	-76.591752	-103.318816
61089		9.506976	0.614667	2.859085	0.153443	0.102848	-0.015881	0.469053	-0.503010	-0.361738	-0.629378	-4.072723	-76.535543	-103.395087
61090		9.701871	0.470244	2.998490	0.125674	0.116221	-0.021160	0.469503	-0.502283	-0.361961	-0.629494	-3.907706	-76.471062	-103.486326
61091		9.899043	0.305561	3.112644	0.087487	0.136471	-0.025593	0.469878	-0.501578	-0.362030	-0.629736	-3.752800	-76.395902	-103.589672
61092		10.043062	0.250561	3.208339	0.040842	0.167122	-0.017829	0.470218	-0.500895	-0.361857	-0.630126	-3.638815	-76.302000	-103.678475
61093		10.166825	0.195768	3.175348	-0.005911	0.196247	-0.010248	0.470515	-0.500249	-0.361452	-0.630650	-3.567113	-76.192010	-103.751335
61094		10.319482	0.181815	3.159823	-0.048944	0.211728	0.008965	0.470794	-0.499683	-0.360824	-0.631249	-3.562434	-76.071501	-103.780638
61095		10.224429	0.329146	3.233465	-0.097128	0.221369	0.028546	0.471030	-0.499241	-0.359974	-0.631908	-3.629711	-75.945749	-103.764206
61096		10.016469	0.478075	3.354996	-0.149773	0.227051	0.044089	0.471195	-0.498926	-0.358902	-0.632643	-3.759789	-75.815116	-103.714161
61097		9.835025	0.556280	3.422566	-0.188241	0.240305	0.049670	0.471302	-0.498675	-0.357666	-0.633461	-3.921529	-75.677712	-103.654111
61098		9.809251	0.597059	3.451835	-0.175037	0.263104	0.044126	0.471467	-0.498302	-0.356427	-0.634329	-4.056892	-75.526300	-103.613492
61099		9.873162	0.552470	3.365679	-0.079466	0.285667	0.024503	0.471844	-0.497604	-0.355490	-0.635123	-4.090391	-75.363936	-103.621464
61100		9.733024	0.568260	3.516462	0.051214	0.332451	-0.000589	0.472551	-0.496395	-0.354914	-0.635864	-3.986751	-75.174582	-103.693862
61101		9.508235	0.469360	3.705767	0.155073	0.411890	-0.038485	0.473533	-0.494627	-0.354579	-0.636699	-3.735154	-74.942484	-103.857837
61102		10.057808	0.223050	3.563825	0.169490	0.508828	-0.092903	0.474548	-0.492408	-0.354187	-0.637880	-3.354643	-74.655252	-104.147087
61103		12.534930	-0.068980	2.240828	0.019270	0.435276	-0.133951	0.474926	-0.490712	-0.353594	-0.639232	-2.996466	-74.412314	-104.502788
61104		12.511610	0.598219	3.039309	-0.139219	0.389778	-0.067039	0.475050	-0.489646	-0.352433	-0.640598	-2.877985	-74.191705	-104.704242
61105		10.461978	0.369132	3.438318	-0.074053	0.424199	-0.017428	0.475548	-0.488409	-0.351280	-0.641805	-2.823316	-73.951252	-104.800730
61106		9.812746	-0.405255	2.977610	0.022354	0.424571	-0.062421	0.476138	-0.486851	-0.350539	-0.642955	-2.626752	-73.710437	-104.987508
61107		10.327508	-1.019249	2.693180	0.083913	0.389577	-0.065843	0.476801	-0.485259	-0.350091	-0.643911	-2.397998	-73.490865	-105.171347
61108		10.819330	-1.499550	2.758682	0.140947	0.312296	-0.027059	0.477593	-0.483839	-0.349911	-0.644490	-2.220952	-73.313150	-105.267300
61109		10.509632	-1.798076	2.853065	0.198979	0.246563	0.020803	0.478560	-0.482582	-0.349962	-0.644687	-2.109714	-73.173273	-105.259903
61110		10.047932	-2.028395	2.800598	0.281321	0.202466	0.051101	0.479748	-0.481315	-0.350305	-0.644566	-2.011569	-73.056746	-105.189586
61111		9.805275	-2.265647	2.529563	0.412624	0.157337	0.054764	0.481179	-0.479889	-0.351175	-0.644088	-1.848991	-72.967317	-105.107868
61112		9.653450	-2.526598	2.206154	0.580251	0.110219	0.053204	0.482925	-0.478200	-0.352693	-0.643208	-1.590483	-72.903718	-105.026208
61113		9.418025	-2.755349	1.757194	0.759890	0.038257	0.062649	0.484995	-0.476326	-0.354942	-0.641802	-1.251114	-72.882598	-104.921235
61114		9.101900	-3.041748	1.378532	0.953360	-0.062094	0.089534	0.487427	-0.474338	-0.357977	-0.639743	-0.854946	-72.917701	-104.760064
61115		8.886147	-3.286948	0.780845	1.114584	-0.196270	0.128188	0.490109	-0.472447	-0.361760	-0.636959	-0.441363	-73.030940	-104.520213
61116		8.806118	-3.478104	0.440010	1.193296	-0.338668	0.174547	0.492850	-0.470881	-0.366013	-0.633565	-0.071624	-73.225136	-104.188094
61117		8.922803	-3.416370	0.336700	1.183775	-0.487870	0.237333	0.495473	-0.469909	-0.370448	-0.629651	0.171690	-73.506352	-103.729657
61118		9.306367	-3.247148	0.413166	1.122919	-0.622053	0.298830	0.497878	-0.469603	-0.374856	-0.625358	0.253395	-73.864249	-103.140503
61119		9.800295	-2.987281	0.585678	1.042270	-0.705936	0.351532	0.500079	-0.469840	-0.379088	-0.620858	0.170368	-74.271022	-102.428644
61120		10.330652	-2.710926	0.723541	0.971942	-0.734473	0.404170	0.502202	-0.470422	-0.383027	-0.616269	-0.086542	-74.693180	-101.580250
61121		10.697944	-2.393162	0.826276	0.963654	-0.718160	0.469157	0.504517	-0.471078	-0.386736	-0.611542	-0.517655	-75.104841	-100.557374
61122		10.786220	-2.044504	0.945053	1.045727	-0.672333	0.524325	0.507259	-0.471477	-0.390429	-0.606600	-1.063936	-75.487393	-99.369390
61123		10.629708	-1.683602	1.045858	1.200712	-0.606184	0.544643	0.510533	-0.471294	-0.394362	-0.601428	-1.606073	-75.829039	-98.095281
61124		10.393617	-1.399486	1.126424	1.395782	-0.521731	0.495826	0.514256	-0.470242	-0.398754	-0.596161	-1.960458	-76.120804	-96.901959
61125		10.044113	-1.233466	1.282610	1.566786	-0.441486	0.404374	0.518236	-0.468292	-0.403643	-0.590937	-2.022029	-76.367286	-95.909921
61126		9.728876	-1.152500	1.455768	1.648322	-0.365587	0.309853	0.522241	-0.465688	-0.408764	-0.585928	-1.823975	-76.572670	-95.138497
61127		9.383794	-1.074186	1.451429	1.633799	-0.304198	0.245637	0.526114	-0.462771	-0.413805	-0.581217	-1.479166	-76.744535	-94.526377
61128		9.093468	-1.024056	1.416618	1.555393	-0.251857	0.205269	0.529759	-0.459800	-0.418543	-0.576855	-1.083246	-76.888220	-94.013979
61129		8.847820	-1.035344	1.174155	1.468955	-0.203484	0.189719	0.533231	-0.456851	-0.422918	-0.572793	-0.694553	-77.004748	-93.544581
61130		8.739599	-0.972948	1.039381	1.413280	-0.169778	0.190370	0.536619	-0.453939	-0.427016	-0.568891	-0.342468	-77.103128	-93.071256
61131		8.706857	-0.911161	1.201788	1.353097	-0.138531	0.201054	0.539942	-0.451092	-0.430817	-0.565133	-0.049096	-77.183693	-92.572545
61132		8.654789	-0.833000	1.155871	1.304661	-0.112825	0.213179	0.543219	-0.448317	-0.434361	-0.561476	0.181065	-77.250650	-92.038318
61133		8.594124	-0.805164	1.113606	1.275935	-0.094981	0.223318	0.546477	-0.445564	-0.437737	-0.557873	0.370784	-77.307236	-91.478937
61134		8.527661	-0.669404	1.156161	1.273277	-0.092756	0.212738	0.549680	-0.442779	-0.441102	-0.554281	0.580507	-77.363642	-90.942437
61135		8.573846	-0.629315	1.390284	1.300196	-0.092409	0.187419	0.552851	-0.439835	-0.444581	-0.550681	0.872961	-77.419461	-90.474331
61136		8.542528	-0.656901	1.491190	1.356130	-0.071179	0.142665	0.556041	-0.436568	-0.448231	-0.547097	1.307218	-77.464080	-90.119452
61137		8.561903	-0.861561	1.589976	1.414255	-0.054915	0.078342	0.559194	-0.432920	-0.452115	-0.543575	1.944252	-77.498249	-89.937540
61138		8.603551	-1.125713	1.766651	1.457697	-0.036533	0.010360	0.562267	-0.428935	-0.456187	-0.540152	2.777246	-77.521648	-89.931577
61139		8.724327	-1.341081	1.964979	1.480205	-0.000748	-0.051128	0.565275	-0.424615	-0.460329	-0.536902	3.782636	-77.521713	-90.088260
61140		8.829911	-1.514289	2.058712	1.469789	0.026791	-0.077528	0.568220	-0.420178	-0.464392	-0.533775	4.840179	-77.505176	-90.305266
61141		8.966727	-1.659339	2.058523	1.419966	0.057686	-0.084773	0.571085	-0.415750	-0.468229	-0.530826	5.882911	-77.468877	-90.535574
61142		9.017221	-1.718075	2.046272	1.327785	0.080124	-0.070486	0.573819	-0.411551	-0.471701	-0.528068	6.821433	-77.420747	-90.714164
61143		9.027648	-1.698929	2.030784	1.226940	0.110486	-0.046171	0.576460	-0.407590	-0.474753	-0.525523	7.631280	-77.355615	-90.819249
61144		9.007467	-1.608732	1.882767	1.153240	0.134181	-0.020933	0.579050	-0.403837	-0.477470	-0.523105	8.317304	-77.279685	-90.841738
61145		9.029616	-1.529257	1.850699	1.133188	0.145906	-0.009060	0.581641	-0.400112	-0.480066	-0.520712	8.958804	-77.197138	-90.829348
61146		9.156557	-1.449802	1.897768	1.160364	0.165082	-0.020017	0.584283	-0.396234	-0.482677	-0.518301	9.625662	-77.103772	-90.828100
61147		9.312275	-1.465305	1.985445	1.212257	0.192802	-0.035148	0.587035	-0.392066	-0.485359	-0.515849	10.347949	-76.992258	-90.852110
61148		9.601610	-1.510932	2.044754	1.248365	0.218736	-0.060040	0.589832	-0.387665	-0.488082	-0.513409	11.127000	-76.864499	-90.914365
61149		10.025852	-1.588773	2.159349	1.291752	0.254979	-0.085618	0.592713	-0.382949	-0.490844	-0.510992	11.971700	-76.712188	-91.017355
61150		10.382809	-1.685676	2.409272	1.378977	0.300129	-0.105045	0.595793	-0.377810	-0.493703	-0.508475	12.871539	-76.533038	-91.127018
61151		10.531160	-1.698969	2.613549	1.487913	0.354990	-0.115236	0.599157	-0.372145	-0.496674	-0.505801	13.819643	-76.320394	-91.220917
61152		10.542095	-1.669735	2.775238	1.516984	0.413165	-0.121995	0.602664	-0.366223	-0.499520	-0.503147	14.744132	-76.075393	-91.274863
61153		10.491379	-1.615209	2.971403	1.450347	0.471980	-0.118279	0.606170	-0.360324	-0.501990	-0.500730	15.577218	-75.797006	-91.272575
61154		10.351498	-1.390248	3.155253	1.333371	0.539514	-0.102495	0.609639	-0.354649	-0.503899	-0.498649	16.247085	-75.485186	-91.172570
61155		10.102425	-1.060365	3.286957	1.219930	0.633098	-0.081149	0.613167	-0.349103	-0.505183	-0.496933	16.745775	-75.124415	-90.961055
61156		10.049780	-0.842392	3.112497	1.183074	0.752140	-0.066427	0.616937	-0.343414	-0.505953	-0.495446	17.108567	-74.702498	-90.632043
61157		11.480093	-1.032105	1.985149	1.406891	0.850521	-0.065629	0.621307	-0.336754	-0.506951	-0.493533	17.543209	-74.226269	-90.242027
61158		14.738214	-1.456752	0.888939	1.844275	0.665111	-0.095007	0.625819	-0.329111	-0.509603	-0.490246	18.384367	-73.848432	-90.015215
61159		14.998248	-1.350067	2.127531	2.139571	0.516755	-0.109159	0.630337	-0.320814	-0.513419	-0.485958	19.504480	-73.548126	-89.900513
61160		11.834488	-0.747220	2.819935	2.036335	0.539132	-0.072302	0.634761	-0.312869	-0.516788	-0.481790	20.461266	-73.245448	-89.678693
61161		10.066915	0.309055	2.624330	1.802792	0.629212	-0.031700	0.639087	-0.305498	-0.519199	-0.478195	21.149203	-72.901877	-89.313570
61162		9.573110	1.444205	2.414452	1.615624	0.708667	-0.002399	0.643348	-0.298610	-0.520814	-0.475067	21.616142	-72.525040	-88.830431
61163		9.462859	1.903689	2.312596	1.526950	0.778987	0.007982	0.647637	-0.291819	-0.521942	-0.472212	21.977101	-72.112120	-88.286498
61164		9.479618	1.585845	2.203487	1.519357	0.828168	0.016440	0.652014	-0.284962	-0.522836	-0.469379	22.286579	-71.677777	-87.693505
61165		9.661024	1.146348	2.222910	1.603984	0.819547	0.049594	0.656517	-0.277889	-0.523875	-0.466174	22.610953	-71.254391	-87.061780
61166		9.659862	0.865671	2.063571	1.686093	0.805456	0.128254	0.661224	-0.270786	-0.524992	-0.462430	22.871712	-70.858802	-86.313334
61167		9.250900	0.470578	1.575812	1.673953	0.774029	0.225709	0.666000	-0.264004	-0.526012	-0.458321	23.015922	-70.500517	-85.445233
61168		8.695342	0.173046	0.892513	1.571946	0.688712	0.335828	0.670615	-0.258050	-0.526889	-0.453954	22.999647	-70.214224	-84.468833
61169		8.284086	0.175258	0.303388	1.446186	0.551184	0.451475	0.674920	-0.253091	-0.527760	-0.449329	22.846750	-70.023818	-83.420536
61170		8.301583	0.445534	-0.004429	1.442246	0.388969	0.553914	0.678979	-0.248790	-0.529003	-0.444125	22.644063	-69.942990	-82.322407
61171		8.347844	0.707194	0.079974	1.610962	0.226685	0.599357	0.682872	-0.244354	-0.531081	-0.438097	22.579063	-69.954864	-81.266043
61172		8.383305	0.746194	0.298159	1.871121	0.089234	0.561079	0.686577	-0.239235	-0.534198	-0.431291	22.792974	-70.033971	-80.349641
61173		8.696563	0.486799	0.503383	2.083318	-0.004574	0.464691	0.690004	-0.233279	-0.538155	-0.424105	23.330692	-70.140381	-79.647396
61174		9.304213	-0.058493	0.498969	2.187706	-0.085671	0.371631	0.693056	-0.226886	-0.542657	-0.416797	24.107842	-70.273439	-79.137866
61175		9.795397	-0.420682	0.562644	2.199217	-0.163123	0.362057	0.695803	-0.220532	-0.547395	-0.409368	24.965550	-70.444188	-78.706068
61176		10.015559	-0.803543	0.927788	2.130692	-0.218990	0.445849	0.698410	-0.214762	-0.552028	-0.401703	25.694559	-70.669593	-78.181055
61177		10.354010	-1.021817	1.491736	2.021065	-0.246785	0.590804	0.701031	-0.209776	-0.556317	-0.393778	26.173643	-70.944262	-77.457617
61178		10.707391	-1.097448	1.591594	1.951898	-0.246234	0.766202	0.703849	-0.205527	-0.560224	-0.385363	26.333727	-71.267962	-76.441191
61179		10.761192	-1.060950	1.742238	1.909646	-0.251358	0.920400	0.706825	-0.201814	-0.563842	-0.376498	26.227335	-71.630045	-75.170295
61180		10.432212	-1.062102	1.853217	1.927958	-0.250938	1.038727	0.709963	-0.198379	-0.567310	-0.367094	25.904796	-72.023981	-73.664564
61181		10.001033	-0.907019	1.756240	1.985114	-0.228354	1.096034	0.713234	-0.194804	-0.570672	-0.357326	25.473545	-72.413636	-72.012698
61182		9.647011	-0.764099	1.671306	2.050440	-0.213371	1.096672	0.716521	-0.190979	-0.574023	-0.347307	25.008666	-72.795635	-70.290779
61183		9.462696	-0.533340	1.682408	2.134159	-0.191276	1.061262	0.719787	-0.186653	-0.577390	-0.337176	24.599085	-73.149808	-68.579061
61184		9.373599	-0.288708	1.724032	2.227277	-0.161775	1.007977	0.723032	-0.181798	-0.580775	-0.326916	24.255989	-73.476593	-66.884992
61185		9.349669	-0.152845	1.690563	2.316228	-0.130864	0.957608	0.726252	-0.176359	-0.584148	-0.316587	24.004093	-73.768973	-65.234711
61186		9.270253	-0.123840	1.613222	2.392552	-0.105211	0.922499	0.729444	-0.170509	-0.587486	-0.306103	23.790842	-74.041744	-63.582346
61187		9.193904	-0.219234	1.605842	2.457551	-0.100228	0.906450	0.732555	-0.164301	-0.590818	-0.295470	23.624115	-74.302828	-61.940988
61188		9.069324	-0.261999	1.645737	2.494356	-0.107835	0.898537	0.735538	-0.157955	-0.594137	-0.284667	23.452420	-74.568551	-60.275515
61189		8.983160	-0.240132	1.585999	2.487295	-0.131358	0.890648	0.738302	-0.151579	-0.597432	-0.273878	23.295721	-74.839810	-58.631120
61190		9.002858	-0.137253	1.578790	2.463530	-0.153611	0.876910	0.740839	-0.145293	-0.600683	-0.263112	23.119434	-75.122075	-56.983483
61191		9.038295	0.097481	1.579186	2.429746	-0.183207	0.871316	0.743124	-0.139091	-0.603901	-0.252436	22.942973	-75.413743	-55.357080
61192		9.059735	0.279444	1.618140	2.414907	-0.201064	0.858937	0.745211	-0.132944	-0.607074	-0.241761	22.741540	-75.714201	-53.716611
61193		9.094301	0.419595	1.628398	2.397234	-0.223522	0.839844	0.747067	-0.126772	-0.610221	-0.231192	22.570823	-76.017530	-52.119703
61194		9.051214	0.491849	1.709503	2.373122	-0.238826	0.809092	0.748711	-0.120632	-0.613318	-0.220727	22.405304	-76.324323	-50.545206
61195		9.055960	0.520396	1.809658	2.348665	-0.250956	0.770336	0.750138	-0.114420	-0.616361	-0.210477	22.305602	-76.624990	-49.054129
61196		9.119844	0.562504	2.095160	2.329907	-0.252734	0.734746	0.751402	-0.108192	-0.619315	-0.200349	22.217817	-76.921291	-47.588869
61197		9.243810	0.574688	2.302195	2.306955	-0.237107	0.689103	0.752538	-0.101838	-0.622120	-0.190478	22.197462	-77.196118	-46.207296
61198		9.418773	0.596719	2.446233	2.262201	-0.212015	0.656454	0.753597	-0.095551	-0.624713	-0.180818	22.149642	-77.453083	-44.826012
61199		9.544836	0.682063	2.642893	2.188077	-0.188371	0.626070	0.754558	-0.089376	-0.627082	-0.171527	22.106178	-77.688009	-43.493296
61200		9.460501	0.788213	2.632753	2.093880	-0.163399	0.597822	0.755444	-0.083472	-0.629206	-0.162593	22.000809	-77.905603	-42.154353
61201		9.247385	0.892365	2.548229	2.013752	-0.141276	0.566223	0.756247	-0.077706	-0.631126	-0.154055	21.907848	-78.101814	-40.875321
61202		9.128166	0.939711	2.430654	1.947629	-0.125404	0.532044	0.756975	-0.072100	-0.632874	-0.145811	21.798248	-78.283867	-39.619688
61203		9.090109	0.935888	2.385013	1.893402	-0.115056	0.498371	0.757608	-0.066539	-0.634499	-0.137890	21.741332	-78.450851	-38.449554
61204		9.075157	0.944831	2.272711	1.855454	-0.102968	0.459988	0.758178	-0.061023	-0.635998	-0.130192	21.705545	-78.604796	-37.324696
61205		9.131164	0.884581	2.410941	1.812607	-0.099596	0.425674	0.758646	-0.055516	-0.637416	-0.122783	21.746423	-78.747953	-36.302788
61206		9.103256	0.834358	2.420510	1.771264	-0.073610	0.391909	0.759110	-0.050074	-0.638656	-0.115599	21.786129	-78.871692	-35.305223
61207		9.149732	0.755366	2.300754	1.747397	-0.063872	0.361268	0.759510	-0.044578	-0.639810	-0.108632	21.903997	-78.982538	-34.400719
61208		9.257785	0.579402	2.249679	1.750631	-0.057544	0.328461	0.759862	-0.038994	-0.640888	-0.101742	22.070106	-79.084604	-33.544771
61209		9.277655	0.562973	2.341160	1.760696	-0.063324	0.297486	0.760112	-0.033236	-0.641957	-0.094958	22.357680	-79.182461	-32.805944
61210		9.112210	0.462211	2.391885	1.725192	-0.046408	0.271480	0.760348	-0.027555	-0.642888	-0.088352	22.644357	-79.267349	-32.088160
61211		9.069871	0.304314	2.179288	1.709694	-0.019069	0.245562	0.760591	-0.021799	-0.643673	-0.081922	22.989768	-79.331760	-31.438338
61212		9.348208	0.171348	2.084564	1.732376	-0.008928	0.237747	0.760819	-0.015962	-0.644370	-0.075414	23.325998	-79.390606	-30.767156
61213		9.620301	0.167086	2.277813	1.797695	0.016345	0.230232	0.761058	-0.009805	-0.644955	-0.068750	23.718920	-79.434390	-30.114612
61214		9.669943	0.130359	2.528892	1.875854	0.058894	0.229757	0.761386	-0.003370	-0.645338	-0.061803	24.073694	-79.457232	-29.378888
61215		9.562574	0.111171	2.707411	1.941619	0.122959	0.226229	0.761836	0.003383	-0.645448	-0.054681	24.426197	-79.445901	-28.601431
61216		9.466681	0.132727	2.688485	1.980937	0.183850	0.224307	0.762421	0.010272	-0.645261	-0.047405	24.699479	-79.403648	-27.721571
61217		9.189772	0.187472	2.427747	2.023751	0.239864	0.228006	0.763093	0.017361	-0.644816	-0.039997	24.949855	-79.333382	-26.792113
61218		8.971924	0.286631	1.976543	2.099526	0.301029	0.230823	0.763886	0.024703	-0.644069	-0.032297	25.132524	-79.232966	-25.750545
61219		9.905823	0.179715	0.730362	2.137645	0.323697	0.237932	0.764646	0.032206	-0.643180	-0.024468	25.328034	-79.122891	-24.698201
61220		13.424232	-0.122891	-0.332683	2.123809	0.063339	0.253148	0.764498	0.039535	-0.643198	-0.016637	25.779885	-79.152379	-23.916043
61221		13.651166	-0.082882	0.888652	2.287759	-0.143013	0.293199	0.763547	0.047376	-0.643960	-0.008192	26.517481	-79.299481	-23.328126
61222		10.591449	-0.771571	1.781638	2.516187	-0.179283	0.284130	0.762327	0.056075	-0.644758	0.000976	27.431823	-79.464442	-22.788214
61223		9.073179	-1.808626	1.981572	2.505515	-0.205170	0.246154	0.760889	0.064882	-0.645554	0.009927	28.521287	-79.633782	-22.431850
61224		9.059665	-2.509511	1.492516	2.336459	-0.223027	0.266405	0.759349	0.072935	-0.646320	0.018435	29.461369	-79.818959	-22.023236
61225		9.749252	-2.705632	0.892242	2.190644	-0.256593	0.384984	0.757626	0.080082	-0.647199	0.026875	30.080038	-80.055317	-21.372383
61226		10.424380	-2.628049	0.488173	2.162200	-0.299696	0.532534	0.755676	0.086602	-0.648207	0.035797	30.284530	-80.356544	-20.318985
61227		10.634599	-2.220041	0.386300	2.193647	-0.323155	0.655076	0.753500	0.092874	-0.649282	0.045233	30.189057	-80.704718	-18.943541
61228		10.628159	-1.785445	0.199509	2.250106	-0.322461	0.714504	0.751198	0.099114	-0.650262	0.055111	29.834970	-81.068809	-17.275182
61229		10.724032	-1.460846	0.065615	2.309017	-0.301112	0.693801	0.748817	0.105662	-0.651057	0.065064	29.505493	-81.414752	-15.598827
61230		10.887470	-1.259834	0.126013	2.363493	-0.307560	0.618422	0.746315	0.112607	-0.651703	0.074943	29.348095	-81.741483	-14.066438
61231		10.770227	-1.111684	0.412833	2.410898	-0.310337	0.545461	0.743673	0.119989	-0.652218	0.084647	29.468489	-82.049113	-12.788357
61232		10.540569	-1.091896	0.837232	2.439270	-0.300036	0.494495	0.740969	0.127581	-0.652531	0.094292	29.673420	-82.337391	-11.579964
61233		10.367608	-1.164329	1.026809	2.435090	-0.276366	0.462272	0.738228	0.135270	-0.652653	0.103760	29.966010	-82.605716	-10.463355
61234		10.386261	-1.284739	0.797750	2.400695	-0.259934	0.472122	0.735462	0.142734	-0.652618	0.113193	30.071613	-82.868695	-9.178438
61235		10.597758	-1.257790	0.604946	2.376105	-0.267414	0.531165	0.732527	0.149934	-0.652587	0.122694	29.951657	-83.152824	-7.681581
61236		10.668371	-1.084960	0.352156	2.412623	-0.279556	0.593452	0.729392	0.157012	-0.652504	0.132563	29.474734	-83.458913	-5.804608
61237		10.350292	-0.935448	0.356658	2.493949	-0.286071	0.598099	0.726033	0.164388	-0.652309	0.142639	28.994020	-83.768625	-3.878645
61238		9.856288	-0.902751	0.564313	2.591558	-0.276942	0.519341	0.722573	0.172304	-0.651811	0.152780	28.732533	-84.049330	-2.117228
61239		9.443492	-0.945417	0.716807	2.679723	-0.245722	0.413411	0.719070	0.180865	-0.650945	0.162775	28.952666	-84.286249	-0.790751
61240		9.145165	-1.091780	0.913349	2.716288	-0.204948	0.326336	0.715622	0.189739	-0.649678	0.172632	29.406815	-84.477680	0.322061
61241		8.901217	-1.366189	1.095634	2.686913	-0.167364	0.291900	0.712202	0.198587	-0.648172	0.182224	29.973797	-84.643079	1.303365
61242		8.739481	-1.582922	1.086204	2.599616	-0.127632	0.307777	0.708875	0.206966	-0.646478	0.191648	30.181465	-84.792160	2.596105
61243		8.658529	-1.683448	1.077682	2.481452	-0.109093	0.357731	0.705545	0.214748	-0.644801	0.200802	30.034814	-84.948284	4.175228
61244		8.599830	-1.715160	1.011732	2.364965	-0.087661	0.414101	0.702267	0.221848	-0.643100	0.209826	29.274722	-85.106391	6.303984
61245		8.505670	-1.586552	0.979593	2.271316	-0.085425	0.468425	0.698924	0.228447	-0.641487	0.218659	28.117737	-85.277576	8.775415
61246		8.365051	-1.441101	0.756403	2.227637	-0.100989	0.493131	0.695481	0.234765	-0.639890	0.227446	26.592460	-85.455440	11.592061
61247		8.284912	-1.293012	0.604860	2.216418	-0.122234	0.492660	0.691874	0.241075	-0.638324	0.236086	25.056656	-85.641086	14.410665
61248		8.265674	-1.158024	0.700399	2.186041	-0.145694	0.462718	0.688195	0.247338	-0.636726	0.244523	23.496981	-85.822354	17.236693
61249		8.489009	-1.104485	0.781373	2.115765	-0.164498	0.416736	0.684496	0.253533	-0.635174	0.252469	22.214673	-86.001831	19.742004
61250		8.848577	-1.068121	0.652771	2.032805	-0.178186	0.374332	0.680855	0.259533	-0.633617	0.260017	20.979858	-86.171421	22.153319
61251		9.195729	-0.942423	0.840565	1.948834	-0.200144	0.326372	0.677225	0.265436	-0.632147	0.267023	20.112845	-86.344497	24.145567
61252		9.443824	-0.976936	1.042635	1.905014	-0.210226	0.278463	0.673641	0.271295	-0.630611	0.273746	19.419074	-86.507150	25.940628
61253		9.650627	-1.014253	1.204524	1.904923	-0.192565	0.246835	0.670071	0.277238	-0.628946	0.280304	18.966606	-86.658016	27.491686
61254		9.791651	-1.190253	1.294227	1.910354	-0.177802	0.209651	0.666552	0.283236	-0.627079	0.286806	18.613747	-86.788144	28.947910
61255		9.965169	-1.306650	1.457528	1.884916	-0.162610	0.185806	0.663067	0.289211	-0.625141	0.293085	18.490986	-86.910568	30.156870
61256		10.139161	-1.403381	1.605338	1.791572	-0.137659	0.170317	0.659783	0.294828	-0.623143	0.299092	18.204659	-87.010799	31.478120
61257		10.271259	-1.379333	1.742234	1.667165	-0.110586	0.152826	0.656719	0.300061	-0.621205	0.304610	18.023657	-87.098510	32.620243
61258		10.274650	-1.316877	1.869258	1.544673	-0.073765	0.128743	0.653971	0.304857	-0.619217	0.309765	17.730677	-87.155680	33.806458
61259		10.179237	-1.196085	1.913141	1.455118	-0.040110	0.103428	0.651442	0.309403	-0.617222	0.314532	17.664078	-87.195891	34.712278
61260		10.039968	-1.113526	1.961330	1.412599	0.003005	0.082187	0.649136	0.313757	-0.615047	0.319212	17.506659	-87.202440	35.687052
61261		10.048757	-1.025804	2.015087	1.390514	0.033453	0.061376	0.646934	0.318075	-0.612786	0.323725	17.603294	-87.195091	36.392369
61262		9.988516	-1.002178	2.116163	1.337801	0.074621	0.035763	0.644979	0.322183	-0.610365	0.328108	17.673035	-87.154190	37.096912
61263		9.962942	-0.870247	2.191640	1.257505	0.107107	0.021199	0.643224	0.326046	-0.607963	0.332173	17.890555	-87.099767	37.604934
61264		9.945486	-0.790609	2.267953	1.185001	0.145599	0.003475	0.641734	0.329617	-0.605462	0.336075	17.994866	-87.014331	38.187342
61265		9.880933	-0.685563	2.274567	1.155698	0.177857	-0.011260	0.640367	0.333108	-0.602904	0.339818	18.270355	-86.915759	38.578977
61266		9.857153	-0.580541	2.363193	1.140806	0.207888	-0.024601	0.639143	0.336493	-0.600187	0.343577	18.448542	-86.791272	39.062194
61267		9.852428	-0.653557	2.318906	1.142740	0.246009	-0.046780	0.638019	0.339910	-0.597332	0.347258	18.849020	-86.649390	39.321293
61268		9.750305	-0.761764	2.314628	1.146924	0.275447	-0.064642	0.637012	0.343294	-0.594277	0.350998	19.198125	-86.480808	39.636964
61269		9.709302	-0.936991	2.316213	1.132394	0.316083	-0.070095	0.636111	0.346602	-0.591135	0.354669	19.576063	-86.296828	39.912802
61270		9.731340	-1.115035	2.432358	1.077468	0.353489	-0.071611	0.635425	0.349623	-0.587899	0.358293	19.718912	-86.084676	40.395469
61271		9.877982	-1.275850	2.515915	1.020493	0.408518	-0.060697	0.634933	0.352360	-0.584640	0.361800	19.720897	-85.852763	40.984056
61272		10.151920	-1.461658	2.606347	0.963516	0.475183	-0.037055	0.634703	0.354676	-0.581245	0.365393	19.297310	-85.581089	41.969618
61273		10.790349	-1.645363	2.337897	0.932496	0.544966	-0.007575	0.634629	0.356709	-0.577772	0.369032	18.676501	-85.284636	43.132819
61274		12.480350	-1.827253	1.442058	1.010407	0.531569	0.034849	0.634309	0.358840	-0.574201	0.373066	17.885100	-84.993380	44.515375
61275		13.803974	-1.552298	1.068286	1.137068	0.383311	0.086240	0.633189	0.361531	-0.570990	0.377277	17.324334	-84.799330	45.736897
61276		12.285136	-0.651730	1.912928	1.125874	0.312000	0.155753	0.631761	0.364068	-0.568076	0.381605	16.463370	-84.645699	47.256756
61277		10.516718	0.057755	2.203400	1.035637	0.338535	0.178335	0.630479	0.366234	-0.565328	0.385712	15.517615	-84.487866	48.807277
61278		9.913431	0.230368	1.764952	0.938207	0.392943	0.136303	0.629622	0.368055	-0.562446	0.389572	14.677831	-84.282020	50.198696
61279		10.306385	0.181215	1.303789	0.805553	0.402719	0.087178	0.629088	0.369610	-0.559744	0.392840	14.153617	-84.071604	51.194021
61280		10.898577	0.216216	1.322815	0.677429	0.382682	0.074216	0.628779	0.370790	-0.557265	0.395736	13.643618	-83.859990	52.104570
61281		11.317007	0.193706	1.594913	0.584011	0.372321	0.093864	0.628536	0.371678	-0.555090	0.398337	13.096732	-83.665604	52.995776
61282		11.254127	0.270581	1.579764	0.522140	0.411215	0.128073	0.628471	0.372153	-0.552915	0.401013	12.298213	-83.442792	54.107816
61283		11.000858	0.307611	1.541303	0.444157	0.456389	0.161981	0.628571	0.372237	-0.550868	0.403587	11.363954	-83.206732	55.309134
61284		10.521073	0.526473	1.279201	0.300754	0.465417	0.210265	0.628889	0.371673	-0.549109	0.406002	10.149021	-82.958046	56.713903
61285		9.852266	1.004776	0.809685	0.134123	0.431448	0.251259	0.629305	0.370580	-0.547925	0.407951	8.812069	-82.738980	58.143256
61286		9.152954	1.570268	0.145775	0.050765	0.359020	0.258244	0.629689	0.369310	-0.547090	0.409627	7.484089	-82.547167	59.518871
61287		8.483888	1.965066	-0.322336	0.128895	0.262751	0.198349	0.629756	0.368687	-0.546344	0.411079	6.603892	-82.412961	60.485674
61288		7.860387	1.999053	-0.519232	0.328299	0.152656	0.081539	0.629422	0.369196	-0.545260	0.412570	6.379203	-82.322407	60.909273
61289		7.436654	1.580081	-0.550751	0.547225	0.035241	-0.062430	0.628627	0.371066	-0.543883	0.413919	6.977874	-82.299499	60.626035
61290		7.524712	0.960227	-0.433543	0.678305	-0.079563	-0.171512	0.627527	0.373840	-0.542331	0.415126	8.141524	-82.323048	59.850897
61291		8.192480	0.276582	-0.246007	0.668765	-0.178963	-0.213608	0.626224	0.376939	-0.541081	0.415922	9.584645	-82.406640	58.785956
61292		9.170835	-0.190034	-0.025124	0.529167	-0.256830	-0.165434	0.624897	0.379590	-0.540394	0.416400	10.798358	-82.526141	57.874266
61293		9.898438	-0.384418	0.203646	0.325693	-0.304901	-0.054072	0.623559	0.381440	-0.540544	0.416521	11.521490	-82.692482	57.337735
61294		10.210423	-0.373990	0.434275	0.152495	-0.322363	0.073849	0.622265	0.382402	-0.541296	0.416597	11.581267	-82.873499	57.372284
61295		10.190623	-0.188364	0.648375	0.069402	-0.311014	0.176675	0.620915	0.382839	-0.542435	0.416730	11.144351	-83.069082	57.857057
61296		10.081086	0.104945	0.832132	0.060659	-0.281383	0.222639	0.619593	0.383025	-0.543533	0.417095	10.395201	-83.243013	58.653349
61297		9.814755	0.193702	0.983026	0.090245	-0.233116	0.217253	0.618326	0.383252	-0.544461	0.417557	9.644065	-83.397252	59.466161
61298		9.534451	0.148756	1.056427	0.118403	-0.177439	0.170871	0.617281	0.383540	-0.545015	0.418115	9.025826	-83.505233	60.163519
61299		9.293491	0.083039	1.057833	0.137850	-0.131049	0.130678	0.616378	0.383935	-0.545360	0.418633	8.598856	-83.592059	60.677180
61300		9.119277	0.022929	1.120598	0.166546	-0.093198	0.105468	0.615606	0.384372	-0.545427	0.419281	8.243392	-83.645539	61.137652
61301		8.942129	-0.006138	1.167934	0.187514	-0.067673	0.101621	0.614841	0.384866	-0.545416	0.419966	7.927727	-83.693338	61.567836
61302		8.748690	0.030390	1.255691	0.205662	-0.053191	0.111839	0.614087	0.385321	-0.545288	0.420816	7.521961	-83.723959	62.101387
61303		8.550656	0.090687	1.349362	0.221336	-0.043169	0.118340	0.613286	0.385821	-0.545160	0.421690	7.112004	-83.758417	62.645866
61304		8.366139	0.114966	1.386513	0.248209	-0.038463	0.126401	0.612459	0.386335	-0.544924	0.422727	6.636683	-83.780745	63.273853
61305		8.214767	0.097069	1.417177	0.281205	-0.044502	0.124399	0.611523	0.387003	-0.544683	0.423778	6.220226	-83.815430	63.859318
61306		8.144252	0.045270	1.447084	0.304965	-0.051484	0.123349	0.610554	0.387724	-0.544357	0.424934	5.792200	-83.843892	64.472381
61307		8.195057	0.052583	1.424060	0.315577	-0.069342	0.126682	0.609476	0.388542	-0.544121	0.426035	5.384888	-83.891943	65.068380
61308		8.361882	0.036266	1.504930	0.318111	-0.081458	0.127101	0.608389	0.389355	-0.543862	0.427176	4.947110	-83.936655	65.698742
61309		8.472286	0.059123	1.587649	0.329667	-0.094950	0.134029	0.607195	0.390248	-0.543684	0.428286	4.502961	-83.998715	66.339794
61310		8.580757	0.110343	1.649346	0.350423	-0.107533	0.139979	0.605942	0.391177	-0.543455	0.429501	4.005930	-84.057711	67.048233
61311		8.631110	0.196442	1.736254	0.378710	-0.117830	0.144981	0.604561	0.392235	-0.543259	0.430728	3.513819	-84.132126	67.765606
61312		8.753904	0.294710	1.829933	0.403181	-0.120942	0.151983	0.603139	0.393316	-0.542975	0.432092	2.958269	-84.197745	68.563103
61313		8.870414	0.294991	1.903480	0.416863	-0.117847	0.148223	0.601670	0.394477	-0.542698	0.433429	2.438754	-84.270883	69.329813
61314		8.976168	0.371829	1.965350	0.408701	-0.106678	0.136416	0.600304	0.395582	-0.542321	0.434785	1.943164	-84.326362	70.070058
61315		9.102133	0.444902	2.078020	0.391018	-0.093496	0.127399	0.598991	0.396665	-0.541980	0.436033	1.496317	-84.383874	70.748708
61316		9.200065	0.538695	2.192351	0.356467	-0.081917	0.120533	0.597826	0.397599	-0.541606	0.437244	1.038836	-84.423611	71.420464
61317		9.149786	0.583290	2.138387	0.336023	-0.059043	0.121406	0.596724	0.398455	-0.541265	0.438390	0.572965	-84.460268	72.086470
61318		9.193310	0.637901	2.119868	0.307261	-0.049523	0.126951	0.595728	0.399152	-0.540909	0.439549	0.034838	-84.480176	72.810850
61319		9.249066	0.619448	2.091244	0.297913	-0.039322	0.144194	0.594702	0.399787	-0.540636	0.440696	-0.600872	-84.504242	73.625492
61320		9.352388	0.523237	1.955586	0.318473	-0.035599	0.157660	0.593651	0.400400	-0.540271	0.442002	-1.322174	-84.514164	74.540294
61321		9.434661	0.530291	2.108320	0.326892	-0.030918	0.166024	0.592538	0.401042	-0.539948	0.443306	-2.080663	-84.531108	75.494920
61322		9.554728	0.441940	2.275542	0.297037	-0.004112	0.166620	0.591592	0.401495	-0.539551	0.444641	-2.863229	-84.520323	76.458909
61323		9.825576	0.358236	2.409855	0.235439	0.037250	0.165288	0.590845	0.401715	-0.539225	0.445830	-3.648549	-84.495822	77.387875
61324		10.091963	0.369698	2.191784	0.161048	0.074756	0.183023	0.590347	0.401544	-0.538926	0.447003	-4.557184	-84.436481	78.400366
61325		10.256205	0.351081	2.039730	0.083155	0.096476	0.204038	0.589976	0.401076	-0.538841	0.448014	-5.599282	-84.373402	79.499833
61326		10.514587	0.307492	1.968230	0.031574	0.095739	0.224637	0.589701	0.400363	-0.538850	0.449002	-6.761143	-84.295898	80.692496
61327		10.751986	0.345120	1.982798	-0.000493	0.104630	0.239101	0.589439	0.399534	-0.538998	0.449906	-7.989301	-84.221365	81.931074
61328		10.918475	0.455081	2.102911	-0.018223	0.113889	0.241958	0.589272	0.398585	-0.539097	0.450846	-9.193906	-84.127107	83.138383
61329		10.950051	0.523883	2.381312	-0.013255	0.143344	0.221186	0.589179	0.397679	-0.539122	0.451738	-10.227514	-84.027460	84.174419
61330		10.995709	0.562571	2.561519	0.008281	0.194053	0.176598	0.589322	0.396802	-0.538792	0.452714	-10.913811	-83.890616	84.876282
61331		11.005990	0.535657	2.685471	0.030415	0.263643	0.125685	0.589680	0.396008	-0.538172	0.453680	-11.238245	-83.731329	85.224667
61332		11.057847	0.545260	2.826381	0.057666	0.347200	0.077530	0.590361	0.395194	-0.537079	0.454799	-11.193214	-83.518446	85.219568
61333		10.924214	0.521394	2.880193	0.088991	0.453314	0.040335	0.591302	0.394369	-0.535593	0.456043	-10.869266	-83.261885	84.949309
61334		10.803971	0.468710	2.842178	0.136905	0.563593	0.004297	0.592568	0.393487	-0.533528	0.457580	-10.269212	-82.934600	84.430847
61335		11.303037	0.240865	2.411078	0.182481	0.679356	-0.023847	0.594065	0.392587	-0.531024	0.459321	-9.496993	-82.556188	83.762334
61336		13.258125	0.099898	1.649872	0.145117	0.626772	-0.032822	0.595557	0.391675	-0.528667	0.460884	-8.801449	-82.194928	83.151410
61337		13.251425	0.776728	2.122525	0.031209	0.584957	0.015410	0.596998	0.390430	-0.526858	0.462146	-8.452288	-81.864867	82.821447
61338		12.001722	0.505023	2.056248	0.013608	0.627791	0.024555	0.598606	0.388964	-0.524903	0.463525	-8.141238	-81.497157	82.521836
61339		11.582133	-0.080405	1.719502	-0.006934	0.590872	-0.019346	0.600206	0.387675	-0.523087	0.464586	-7.734235	-81.165967	82.110669
61340		11.378186	-0.528750	1.347524	-0.049182	0.560543	-0.022961	0.601859	0.386295	-0.521377	0.465518	-7.373114	-80.839515	81.723340
61341		10.736173	-0.915167	1.335649	0.004485	0.500377	-0.005953	0.603161	0.385211	-0.519824	0.466467	-7.098814	-80.558068	81.452557
61342		9.791000	-1.356282	1.384208	0.146207	0.462001	-0.014313	0.604152	0.384622	-0.517966	0.467737	-6.740488	-80.286509	81.180927
61343		9.004973	-1.916154	1.182663	0.332945	0.429055	-0.032199	0.604691	0.384758	-0.515804	0.469315	-6.254145	-80.046830	80.885517
61344		8.500441	-2.252184	0.927526	0.525049	0.381331	-0.027081	0.604764	0.385530	-0.513269	0.471362	-5.703812	-79.821348	80.638961
61345		8.224250	-2.455871	0.425808	0.702574	0.307337	-0.008949	0.604209	0.387002	-0.510640	0.473717	-5.152572	-79.648942	80.492433
61346		8.071197	-2.530457	-0.017510	0.840083	0.192207	0.008540	0.603086	0.389070	-0.507987	0.476300	-4.614907	-79.529037	80.442066
61347		8.103157	-2.430775	-0.242753	0.884765	0.061050	0.028514	0.601441	0.391568	-0.505722	0.478736	-4.153281	-79.495246	80.492732
61348		8.155460	-2.226158	-0.266088	0.842142	-0.058215	0.052858	0.599548	0.394114	-0.503888	0.480950	-3.815998	-79.516859	80.647381
61349		8.153248	-1.871422	-0.124345	0.742859	-0.164928	0.082662	0.597460	0.396578	-0.502730	0.482730	-3.651858	-79.610361	80.917859
61350		8.209583	-1.660703	0.073817	0.617706	-0.247141	0.107153	0.595386	0.398760	-0.502096	0.484154	-3.653528	-79.738485	81.286275
61351		8.646298	-1.544152	0.314370	0.464158	-0.298250	0.150830	0.593339	0.400536	-0.502135	0.485161	-3.901483	-79.905604	81.812978
61352		9.478072	-1.381374	0.239892	0.305995	-0.313529	0.220286	0.591434	0.401662	-0.502672	0.485997	-4.482253	-80.066555	82.587769
61353		10.464384	-0.964110	0.199465	0.201161	-0.327649	0.334228	0.589388	0.402264	-0.503797	0.486821	-5.530758	-80.239262	83.773517
61354		10.851530	-0.292497	0.400146	0.253420	-0.326784	0.430323	0.587035	0.402733	-0.504918	0.488112	-6.907053	-80.390175	85.324042
61355		10.596774	0.169188	0.932629	0.440800	-0.290369	0.414863	0.584393	0.403738	-0.505502	0.489844	-8.156332	-80.526556	86.851533
61356		10.186203	0.361149	1.303135	0.630449	-0.220220	0.277368	0.581911	0.405431	-0.505071	0.491842	-8.816800	-80.619837	87.894240
